"year","id","task","tasktime","trial","onset","event","FixTime","TestSlide","TestSlide.RT","CorrectResp","TestSlide.ACC"
1,102,"AUS_CMFT_Cond2",2011-10-01 12:28:56,1,29,"Fix",1500,"NovelHLFA040_T1",NA,2,0
1,102,"AUS_CMFT_Cond2",2011-10-01 12:28:56,1,30.5,"TestSlide",1500,"NovelHLFA040_T1",NA,2,0
1,102,"AUS_CMFT_Cond2",2011-10-01 12:28:56,2,35,"Fix",7500,"Novel30RHSA049_T3",1738,4,1
1,102,"AUS_CMFT_Cond2",2011-10-01 12:28:56,2,42.5,"TestSlide",7500,"Novel30RHSA049_T3",1738,4,1
1,102,"AUS_CMFT_Cond2",2011-10-01 12:28:56,3,47,"Fix",1500,"Novel60LA076_T1",2782,2,0
1,102,"AUS_CMFT_Cond2",2011-10-01 12:28:56,3,48.5,"TestSlide",1500,"Novel60LA076_T1",2782,2,0
1,102,"AUS_CMFT_Cond2",2011-10-01 12:28:56,4,53,"Fix",1500,"NovelHLFA011_T3",1946,4,1
1,102,"AUS_CMFT_Cond2",2011-10-01 12:28:56,4,54.5,"TestSlide",1500,"NovelHLFA011_T3",1946,4,1
1,102,"AUS_CMFT_Cond2",2011-10-01 12:28:56,5,59,"Fix",7500,"NovelFBLA004_T3",2132,4,1
1,102,"AUS_CMFT_Cond2",2011-10-01 12:28:56,5,66.5,"TestSlide",7500,"NovelFBLA004_T3",2132,4,1
1,102,"AUS_CMFT_Cond2",2011-10-01 12:28:56,6,71,"Fix",3000,"Novel60LA022_T2",2276,3,0
1,102,"AUS_CMFT_Cond2",2011-10-01 12:28:56,6,74,"TestSlide",3000,"Novel60LA022_T2",2276,3,0
1,102,"AUS_CMFT_Cond2",2011-10-01 12:28:56,7,78.5,"Fix",7500,"NovelFBLA011_T1",2861,2,1
1,102,"AUS_CMFT_Cond2",2011-10-01 12:28:56,7,86,"TestSlide",7500,"NovelFBLA011_T1",2861,2,1
1,102,"AUS_CMFT_Cond2",2011-10-01 12:28:56,8,90.5,"Fix",7500,"NovelHLFA076_T3",2975,4,0
1,102,"AUS_CMFT_Cond2",2011-10-01 12:28:56,8,98,"TestSlide",7500,"NovelHLFA076_T3",2975,4,0
1,102,"AUS_CMFT_Cond2",2011-10-01 12:28:56,9,102.5,"Fix",1500,"Novel60LA040_T2",1474,3,0
1,102,"AUS_CMFT_Cond2",2011-10-01 12:28:56,9,104,"TestSlide",1500,"Novel60LA040_T2",1474,3,0
1,102,"AUS_CMFT_Cond2",2011-10-01 12:28:56,10,108.5,"Fix",7500,"NovelFBLA022_T3",2516,4,1
1,102,"AUS_CMFT_Cond2",2011-10-01 12:28:56,10,116,"TestSlide",7500,"NovelFBLA022_T3",2516,4,1
1,102,"AUS_CMFT_Cond2",2011-10-01 12:28:56,11,120.5,"Fix",3000,"Novel60RA049_T2",2940,3,0
1,102,"AUS_CMFT_Cond2",2011-10-01 12:28:56,11,123.5,"TestSlide",3000,"Novel60RA049_T2",2940,3,0
1,102,"AUS_CMFT_Cond2",2011-10-01 12:28:56,12,128,"Fix",7500,"Novel30RHSA040_T3",3686,4,0
1,102,"AUS_CMFT_Cond2",2011-10-01 12:28:56,12,135.5,"TestSlide",7500,"Novel30RHSA040_T3",3686,4,0
1,102,"AUS_CMFT_Cond2",2011-10-01 12:28:56,13,140,"Fix",7500,"NovelHLFA022_T3",2271,4,1
1,102,"AUS_CMFT_Cond2",2011-10-01 12:28:56,13,147.5,"TestSlide",7500,"NovelHLFA022_T3",2271,4,1
1,102,"AUS_CMFT_Cond2",2011-10-01 12:28:56,14,152,"Fix",4500,"NovelFBLA049_T2",2290,3,1
1,102,"AUS_CMFT_Cond2",2011-10-01 12:28:56,14,156.5,"TestSlide",4500,"NovelFBLA049_T2",2290,3,1
1,102,"AUS_CMFT_Cond2",2011-10-01 12:28:56,15,161,"Fix",4500,"Novel60RA076_T2",2158,3,0
1,102,"AUS_CMFT_Cond2",2011-10-01 12:28:56,15,165.5,"TestSlide",4500,"Novel60RA076_T2",2158,3,0
1,102,"AUS_CMFT_Cond2",2011-10-01 12:28:56,16,170,"Fix",7500,"Novel30RHSA011_T2",2096,3,0
1,102,"AUS_CMFT_Cond2",2011-10-01 12:28:56,16,177.5,"TestSlide",7500,"Novel30RHSA011_T2",2096,3,0
1,102,"AUS_CMFT_Cond2",2011-10-01 12:28:56,17,182,"Fix",7500,"NovelFBLA040_T2",3128,3,0
1,102,"AUS_CMFT_Cond2",2011-10-01 12:28:56,17,189.5,"TestSlide",7500,"NovelFBLA040_T2",3128,3,0
1,102,"AUS_CMFT_Cond2",2011-10-01 12:28:56,18,194,"Fix",7500,"Novel60RA004_T2",1802,3,0
1,102,"AUS_CMFT_Cond2",2011-10-01 12:28:56,18,201.5,"TestSlide",7500,"Novel60RA004_T2",1802,3,0
1,102,"AUS_CMFT_Cond2",2011-10-01 12:28:56,19,206,"Fix",3000,"Novel60LA011_T3",2033,4,0
1,102,"AUS_CMFT_Cond2",2011-10-01 12:28:56,19,209,"TestSlide",3000,"Novel60LA011_T3",2033,4,0
1,102,"AUS_CMFT_Cond2",2011-10-01 12:28:56,20,213.5,"Fix",7500,"NovelHLFA049_T3",2555,4,1
1,102,"AUS_CMFT_Cond2",2011-10-01 12:28:56,20,221,"TestSlide",7500,"NovelHLFA049_T3",2555,4,1
1,102,"AUS_CMFT_Cond2",2011-10-01 12:28:56,21,225.5,"Fix",7500,"Novel60LA004_T1",3269,2,1
1,102,"AUS_CMFT_Cond2",2011-10-01 12:28:56,21,233,"TestSlide",7500,"Novel60LA004_T1",3269,2,1
1,102,"AUS_CMFT_Cond2",2011-10-01 12:28:56,22,237.5,"Fix",7500,"Novel30RHSA076_T2",2615,3,1
1,102,"AUS_CMFT_Cond2",2011-10-01 12:28:56,22,245,"TestSlide",7500,"Novel30RHSA076_T2",2615,3,1
1,102,"AUS_CMFT_Cond2",2011-10-01 12:28:56,23,249.5,"Fix",4500,"Novel60RA022_T2",3162,3,0
1,102,"AUS_CMFT_Cond2",2011-10-01 12:28:56,23,254,"TestSlide",4500,"Novel60RA022_T2",3162,3,0
1,102,"AUS_CMFT_Cond2",2011-10-01 12:28:56,24,258.5,"Fix",7500,"Novel30RHSA004_T3",2996,4,0
1,102,"AUS_CMFT_Cond2",2011-10-01 12:28:56,24,266,"TestSlide",7500,"Novel30RHSA004_T3",2996,4,0
1,102,"AUS_CMFT_Cond2",2011-10-01 12:28:56,25,270.5,"Fix",1500,"Novel60RA040_T3",2336,4,0
1,102,"AUS_CMFT_Cond2",2011-10-01 12:28:56,25,272,"TestSlide",1500,"Novel60RA040_T3",2336,4,0
1,102,"AUS_CMFT_Cond2",2011-10-01 12:28:56,26,276.5,"Fix",7500,"Novel30RHSA022_T1",2441,2,0
1,102,"AUS_CMFT_Cond2",2011-10-01 12:28:56,26,284,"TestSlide",7500,"Novel30RHSA022_T1",2441,2,0
1,102,"AUS_CMFT_Cond2",2011-10-01 12:28:56,27,288.5,"Fix",7500,"NovelFBLA076_T2",2251,3,0
1,102,"AUS_CMFT_Cond2",2011-10-01 12:28:56,27,296,"TestSlide",7500,"NovelFBLA076_T2",2251,3,0
1,102,"AUS_CMFT_Cond2",2011-10-01 12:28:56,28,300.5,"Fix",1500,"Novel60RA011_T1",2271,2,0
1,102,"AUS_CMFT_Cond2",2011-10-01 12:28:56,28,302,"TestSlide",1500,"Novel60RA011_T1",2271,2,0
1,102,"AUS_CMFT_Cond2",2011-10-01 12:28:56,29,306.5,"Fix",3000,"Novel60LA049_T1",3119,2,1
1,102,"AUS_CMFT_Cond2",2011-10-01 12:28:56,29,309.5,"TestSlide",3000,"Novel60LA049_T1",3119,2,1
1,102,"AUS_CMFT_Cond2",2011-10-01 12:28:56,30,314,"Fix",4500,"NovelHLFA004_T3",2554,4,0
1,102,"AUS_CMFT_Cond2",2011-10-01 12:28:56,30,318.5,"TestSlide",4500,"NovelHLFA004_T3",2554,4,0
1,102,"Cars_Cond2",2011-10-01 12:55:19,1,29,"Fix",3000,"5_CI_Side1_Cond2_2_resize",2442,3,1
1,102,"Cars_Cond2",2011-10-01 12:55:19,1,32,"TestSlide",3000,"5_CI_Side1_Cond2_2_resize",2442,3,1
1,102,"Cars_Cond2",2011-10-01 12:55:19,2,36.5,"Fix",3000,"1_ARL_Back_Cond2_3",1530,4,0
1,102,"Cars_Cond2",2011-10-01 12:55:19,2,39.5,"TestSlide",3000,"1_ARL_Back_Cond2_3",1530,4,0
1,102,"Cars_Cond2",2011-10-01 12:55:19,3,44,"Fix",1500,"6_TC_Side1_Cond2_2",2103,3,0
1,102,"Cars_Cond2",2011-10-01 12:55:19,3,45.5,"TestSlide",1500,"6_TC_Side1_Cond2_2",2103,3,0
1,102,"Cars_Cond2",2011-10-01 12:55:19,4,50,"Fix",6000,"2_HC_Front1_Cond2_2",1925,3,1
1,102,"Cars_Cond2",2011-10-01 12:55:19,4,56,"TestSlide",6000,"2_HC_Front1_Cond2_2",1925,3,1
1,102,"Cars_Cond2",2011-10-01 12:55:19,5,60.5,"Fix",4500,"5_CI_Front1_Cond2_1",2111,2,0
1,102,"Cars_Cond2",2011-10-01 12:55:19,5,65,"TestSlide",4500,"5_CI_Front1_Cond2_1",2111,2,0
1,102,"Cars_Cond2",2011-10-01 12:55:19,6,69.5,"Fix",7500,"3_FT_Back_Cond2_3",2129,4,0
1,102,"Cars_Cond2",2011-10-01 12:55:19,6,77,"TestSlide",7500,"3_FT_Back_Cond2_3",2129,4,0
1,102,"Cars_Cond2",2011-10-01 12:55:19,7,81.5,"Fix",3000,"4_KS_Side1_Cond2_3",2400,4,1
1,102,"Cars_Cond2",2011-10-01 12:55:19,7,84.5,"TestSlide",3000,"4_KS_Side1_Cond2_3",2400,4,1
1,102,"Cars_Cond2",2011-10-01 12:55:19,8,89,"Fix",7500,"6_TC_Side2_Cond2_1",2194,2,1
1,102,"Cars_Cond2",2011-10-01 12:55:19,8,96.5,"TestSlide",7500,"6_TC_Side2_Cond2_1",2194,2,1
1,102,"Cars_Cond2",2011-10-01 12:55:19,9,101,"Fix",7500,"1_ARL_Front1_Cond2_3",2708,4,1
1,102,"Cars_Cond2",2011-10-01 12:55:19,9,108.5,"TestSlide",7500,"1_ARL_Front1_Cond2_3",2708,4,1
1,102,"Cars_Cond2",2011-10-01 12:55:19,10,113,"Fix",6000,"2_HC_Front2_Cond2_2",2355,3,0
1,102,"Cars_Cond2",2011-10-01 12:55:19,10,119,"TestSlide",6000,"2_HC_Front2_Cond2_2",2355,3,0
1,102,"Cars_Cond2",2011-10-01 12:55:19,11,123.5,"Fix",1500,"4_KS_Back_Cond2_1",2295,2,0
1,102,"Cars_Cond2",2011-10-01 12:55:19,11,125,"TestSlide",1500,"4_KS_Back_Cond2_1",2295,2,0
1,102,"Cars_Cond2",2011-10-01 12:55:19,12,129.5,"Fix",6000,"3_FT_Side1_Cond2_2",2654,3,0
1,102,"Cars_Cond2",2011-10-01 12:55:19,12,135.5,"TestSlide",6000,"3_FT_Side1_Cond2_2",2654,3,0
1,102,"Cars_Cond2",2011-10-01 12:55:19,13,140,"Fix",3000,"5_CI_Back_Cond2_2",2349,3,1
1,102,"Cars_Cond2",2011-10-01 12:55:19,13,143,"TestSlide",3000,"5_CI_Back_Cond2_2",2349,3,1
1,102,"Cars_Cond2",2011-10-01 12:55:19,14,147.5,"Fix",7500,"1_ARL_Side1_Cond2_2",2038,3,1
1,102,"Cars_Cond2",2011-10-01 12:55:19,14,155,"TestSlide",7500,"1_ARL_Side1_Cond2_2",2038,3,1
1,102,"Cars_Cond2",2011-10-01 12:55:19,15,159.5,"Fix",7500,"6_TC_Front1_Cond2_3",1920,4,1
1,102,"Cars_Cond2",2011-10-01 12:55:19,15,167,"TestSlide",7500,"6_TC_Front1_Cond2_3",1920,4,1
1,102,"Cars_Cond2",2011-10-01 12:55:19,16,171.5,"Fix",3000,"2_HC_Side1_Cond2_1",2200,2,0
1,102,"Cars_Cond2",2011-10-01 12:55:19,16,174.5,"TestSlide",3000,"2_HC_Side1_Cond2_1",2200,2,0
1,102,"Cars_Cond2",2011-10-01 12:55:19,17,179,"Fix",3000,"4_KS_Front1_Cond2_3",1736,4,0
1,102,"Cars_Cond2",2011-10-01 12:55:19,17,182,"TestSlide",3000,"4_KS_Front1_Cond2_3",1736,4,0
1,102,"Cars_Cond2",2011-10-01 12:55:19,18,186.5,"Fix",3000,"5_CI_Front2_Cond2_1",2103,2,0
1,102,"Cars_Cond2",2011-10-01 12:55:19,18,189.5,"TestSlide",3000,"5_CI_Front2_Cond2_1",2103,2,0
1,102,"Cars_Cond2",2011-10-01 12:55:19,19,194,"Fix",7500,"3_FT_Front1_Cond2_1",1881,2,0
1,102,"Cars_Cond2",2011-10-01 12:55:19,19,201.5,"TestSlide",7500,"3_FT_Front1_Cond2_1",1881,2,0
1,102,"Cars_Cond2",2011-10-01 12:55:19,20,206,"Fix",4500,"1_ARL_Side2_Cond2_2",2084,3,0
1,102,"Cars_Cond2",2011-10-01 12:55:19,20,210.5,"TestSlide",4500,"1_ARL_Side2_Cond2_2",2084,3,0
1,102,"Cars_Cond2",2011-10-01 12:55:19,21,215,"Fix",1500,"4_KS_Side2_Cond2_1",1640,2,0
1,102,"Cars_Cond2",2011-10-01 12:55:19,21,216.5,"TestSlide",1500,"4_KS_Side2_Cond2_1",1640,2,0
1,102,"Cars_Cond2",2011-10-01 12:55:19,22,221,"Fix",3000,"6_TC_Front2_Cond2_3",1472,4,1
1,102,"Cars_Cond2",2011-10-01 12:55:19,22,224,"TestSlide",3000,"6_TC_Front2_Cond2_3",1472,4,1
1,102,"Cars_Cond2",2011-10-01 12:55:19,23,228.5,"Fix",7500,"2_HC_Side2_Cond2_3",1794,4,0
1,102,"Cars_Cond2",2011-10-01 12:55:19,23,236,"TestSlide",7500,"2_HC_Side2_Cond2_3",1794,4,0
1,102,"Cars_Cond2",2011-10-01 12:55:19,24,240.5,"Fix",7500,"3_FT_Front2_Cond2_1",1619,2,0
1,102,"Cars_Cond2",2011-10-01 12:55:19,24,248,"TestSlide",7500,"3_FT_Front2_Cond2_1",1619,2,0
1,102,"Cars_Cond2",2011-10-01 12:55:19,25,252.5,"Fix",6000,"6_TC_Back_Cond2_3",2065,4,1
1,102,"Cars_Cond2",2011-10-01 12:55:19,25,258.5,"TestSlide",6000,"6_TC_Back_Cond2_3",2065,4,1
1,102,"Cars_Cond2",2011-10-01 12:55:19,26,263,"Fix",4500,"1_ARL_Front2_Cond2_2",2388,3,1
1,102,"Cars_Cond2",2011-10-01 12:55:19,26,267.5,"TestSlide",4500,"1_ARL_Front2_Cond2_2",2388,3,1
1,102,"Cars_Cond2",2011-10-01 12:55:19,27,272,"Fix",7500,"5_CI_Side2_Cond2_2",2086,3,0
1,102,"Cars_Cond2",2011-10-01 12:55:19,27,279.5,"TestSlide",7500,"5_CI_Side2_Cond2_2",2086,3,0
1,102,"Cars_Cond2",2011-10-01 12:55:19,28,284,"Fix",7500,"4_KS_Front2_Cond2_2",1488,3,1
1,102,"Cars_Cond2",2011-10-01 12:55:19,28,291.5,"TestSlide",7500,"4_KS_Front2_Cond2_2",1488,3,1
1,102,"Cars_Cond2",2011-10-01 12:55:19,29,296,"Fix",7500,"3_FT_Side2_Cond2_3",1418,4,0
1,102,"Cars_Cond2",2011-10-01 12:55:19,29,303.5,"TestSlide",7500,"3_FT_Side2_Cond2_3",1418,4,0
1,102,"Cars_Cond2",2011-10-01 12:55:19,30,308,"Fix",7500,"2_HC_Back_Cond2_2",2484,3,0
1,102,"Cars_Cond2",2011-10-01 12:55:19,30,315.5,"TestSlide",7500,"2_HC_Back_Cond2_2",2484,3,0
1,102,"CMFT_Cond2",2011-10-01 12:42:03,1,29,"Fix",1500,"M_5_Front_Halflit",NA,2,0
1,102,"CMFT_Cond2",2011-10-01 12:42:03,1,30.5,"TestSlide",1500,"M_5_Front_Halflit",NA,2,0
1,102,"CMFT_Cond2",2011-10-01 12:42:03,2,35,"Fix",6000,"N_8_13_R_Pro_dark",2657,3,1
1,102,"CMFT_Cond2",2011-10-01 12:42:03,2,41,"TestSlide",6000,"N_8_13_R_Pro_dark",2657,3,1
1,102,"CMFT_Cond2",2011-10-01 12:42:03,3,45.5,"Fix",1500,"Z_6_23_Pro_L",1909,2,1
1,102,"CMFT_Cond2",2011-10-01 12:42:03,3,47,"TestSlide",1500,"Z_6_23_Pro_L",1909,2,1
1,102,"CMFT_Cond2",2011-10-01 12:42:03,4,51.5,"Fix",7500,"D5_Halflit_Frontal",2519,4,0
1,102,"CMFT_Cond2",2011-10-01 12:42:03,4,59,"TestSlide",7500,"D5_Halflit_Frontal",2519,4,0
1,102,"CMFT_Cond2",2011-10-01 12:42:03,5,63.5,"Fix",7500,"B7_Bottomlit_Frontal",2369,4,1
1,102,"CMFT_Cond2",2011-10-01 12:42:03,5,71,"TestSlide",7500,"B7_Bottomlit_Frontal",2369,4,1
1,102,"CMFT_Cond2",2011-10-01 12:42:03,6,75.5,"Fix",7500,"J_6_23_L_Pro",2251,3,0
1,102,"CMFT_Cond2",2011-10-01 12:42:03,6,83,"TestSlide",7500,"J_6_23_L_Pro",2251,3,0
1,102,"CMFT_Cond2",2011-10-01 12:42:03,7,87.5,"Fix",7500,"D7_Bottomlit_Frontal",2732,2,1
1,102,"CMFT_Cond2",2011-10-01 12:42:03,7,95,"TestSlide",7500,"D7_Bottomlit_Frontal",2732,2,1
1,102,"CMFT_Cond2",2011-10-01 12:42:03,8,99.5,"Fix",1500,"Z_5_Front_Half",1913,4,1
1,102,"CMFT_Cond2",2011-10-01 12:42:03,8,101,"TestSlide",1500,"Z_5_Front_Half",1913,4,1
1,102,"CMFT_Cond2",2011-10-01 12:42:03,9,105.5,"Fix",7500,"M_6_23_L_Pro",2498,3,0
1,102,"CMFT_Cond2",2011-10-01 12:42:03,9,113,"TestSlide",7500,"M_6_23_L_Pro",2498,3,0
1,102,"CMFT_Cond2",2011-10-01 12:42:03,10,117.5,"Fix",4500,"J_7_Bottom_Lit",2973,4,1
1,102,"CMFT_Cond2",2011-10-01 12:42:03,10,122,"TestSlide",4500,"J_7_Bottom_Lit",2973,4,1
1,102,"CMFT_Cond2",2011-10-01 12:42:03,11,126.5,"Fix",7500,"N_4_23_R_Pro",1751,3,0
1,102,"CMFT_Cond2",2011-10-01 12:42:03,11,134,"TestSlide",7500,"N_4_23_R_Pro",1751,3,0
1,102,"CMFT_Cond2",2011-10-01 12:42:03,12,138.5,"Fix",6000,"M_8_13_R_Pro_dark",2429,4,1
1,102,"CMFT_Cond2",2011-10-01 12:42:03,12,144.5,"TestSlide",6000,"M_8_13_R_Pro_dark",2429,4,1
1,102,"CMFT_Cond2",2011-10-01 12:42:03,13,149,"Fix",1500,"J_5_Front_Halflit",NA,3,0
1,102,"CMFT_Cond2",2011-10-01 12:42:03,13,150.5,"TestSlide",1500,"J_5_Front_Halflit",NA,3,0
1,102,"CMFT_Cond2",2011-10-01 12:42:03,14,155,"Fix",4500,"N_7_Front_Bot",1485,2,1
1,102,"CMFT_Cond2",2011-10-01 12:42:03,14,159.5,"TestSlide",4500,"N_7_Front_Bot",1485,2,1
1,102,"CMFT_Cond2",2011-10-01 12:42:03,15,164,"Fix",7500,"Z_4_23_Pro_R",2023,3,1
1,102,"CMFT_Cond2",2011-10-01 12:42:03,15,171.5,"TestSlide",7500,"Z_4_23_Pro_R",2023,3,1
1,102,"CMFT_Cond2",2011-10-01 12:42:03,16,176,"Fix",4500,"D8_13_Profile_R",2562,3,0
1,102,"CMFT_Cond2",2011-10-01 12:42:03,16,180.5,"TestSlide",4500,"D8_13_Profile_R",2562,3,0
1,102,"CMFT_Cond2",2011-10-01 12:42:03,17,185,"Fix",1500,"M_7_Front_Bot",2350,3,1
1,102,"CMFT_Cond2",2011-10-01 12:42:03,17,186.5,"TestSlide",1500,"M_7_Front_Bot",2350,3,1
1,102,"CMFT_Cond2",2011-10-01 12:42:03,18,191,"Fix",7500,"B4_23_pro_ri",2519,3,0
1,102,"CMFT_Cond2",2011-10-01 12:42:03,18,198.5,"TestSlide",7500,"B4_23_pro_ri",2519,3,0
1,102,"CMFT_Cond2",2011-10-01 12:42:03,19,203,"Fix",6000,"D6_23_Profile_L",1989,2,0
1,102,"CMFT_Cond2",2011-10-01 12:42:03,19,209,"TestSlide",6000,"D6_23_Profile_L",1989,2,0
1,102,"CMFT_Cond2",2011-10-01 12:42:03,20,213.5,"Fix",4500,"N_5_Front_Half",1736,4,1
1,102,"CMFT_Cond2",2011-10-01 12:42:03,20,218,"TestSlide",4500,"N_5_Front_Half",1736,4,1
1,102,"CMFT_Cond2",2011-10-01 12:42:03,21,222.5,"Fix",7500,"B6_23_pro_L",2210,2,0
1,102,"CMFT_Cond2",2011-10-01 12:42:03,21,230,"TestSlide",7500,"B6_23_pro_L",2210,2,0
1,102,"CMFT_Cond2",2011-10-01 12:42:03,22,234.5,"Fix",7500,"Z_8_13_Pro_R_dark",1708,3,0
1,102,"CMFT_Cond2",2011-10-01 12:42:03,22,242,"TestSlide",7500,"Z_8_13_Pro_R_dark",1708,3,0
1,102,"CMFT_Cond2",2011-10-01 12:42:03,23,246.5,"Fix",3000,"J_4_23_R_Pro",2172,3,1
1,102,"CMFT_Cond2",2011-10-01 12:42:03,23,249.5,"TestSlide",3000,"J_4_23_R_Pro",2172,3,1
1,102,"CMFT_Cond2",2011-10-01 12:42:03,24,254,"Fix",7500,"B8_13_pro_R_HS",2822,2,0
1,102,"CMFT_Cond2",2011-10-01 12:42:03,24,261.5,"TestSlide",7500,"B8_13_pro_R_HS",2822,2,0
1,102,"CMFT_Cond2",2011-10-01 12:42:03,25,266,"Fix",1500,"M_4_23_R_Pro",1930,4,0
1,102,"CMFT_Cond2",2011-10-01 12:42:03,25,267.5,"TestSlide",1500,"M_4_23_R_Pro",1930,4,0
1,102,"CMFT_Cond2",2011-10-01 12:42:03,26,272,"Fix",7500,"J_8_13_r_pro_dark",3251,2,0
1,102,"CMFT_Cond2",2011-10-01 12:42:03,26,279.5,"TestSlide",7500,"J_8_13_r_pro_dark",3251,2,0
1,102,"CMFT_Cond2",2011-10-01 12:42:03,27,284,"Fix",7500,"Z_7_Front_Bot",2661,3,1
1,102,"CMFT_Cond2",2011-10-01 12:42:03,27,291.5,"TestSlide",7500,"Z_7_Front_Bot",2661,3,1
1,102,"CMFT_Cond2",2011-10-01 12:42:03,28,296,"Fix",7500,"D4_23_profile_R",3071,2,0
1,102,"CMFT_Cond2",2011-10-01 12:42:03,28,303.5,"TestSlide",7500,"D4_23_profile_R",3071,2,0
1,102,"CMFT_Cond2",2011-10-01 12:42:03,29,308,"Fix",4500,"N_6_23_L_Pro",3114,2,1
1,102,"CMFT_Cond2",2011-10-01 12:42:03,29,312.5,"TestSlide",4500,"N_6_23_L_Pro",3114,2,1
1,102,"CMFT_Cond2",2011-10-01 12:42:03,30,317,"Fix",3000,"B5_halflit_frontal",3242,4,1
1,102,"CMFT_Cond2",2011-10-01 12:42:03,30,320,"TestSlide",3000,"B5_halflit_frontal",3242,4,1
1,103,"AUS_CMFT_Cond2",2011-05-04 15:45:51,1,29,"Fix",1500,"NovelHLFA040_T1",NA,2,0
1,103,"AUS_CMFT_Cond2",2011-05-04 15:45:51,1,30.5,"TestSlide",1500,"NovelHLFA040_T1",NA,2,0
1,103,"AUS_CMFT_Cond2",2011-05-04 15:45:51,2,35,"Fix",7500,"Novel30RHSA049_T3",2490,4,1
1,103,"AUS_CMFT_Cond2",2011-05-04 15:45:51,2,42.5,"TestSlide",7500,"Novel30RHSA049_T3",2490,4,1
1,103,"AUS_CMFT_Cond2",2011-05-04 15:45:51,3,47,"Fix",1500,"Novel60LA076_T1",2056,2,1
1,103,"AUS_CMFT_Cond2",2011-05-04 15:45:51,3,48.5,"TestSlide",1500,"Novel60LA076_T1",2056,2,1
1,103,"AUS_CMFT_Cond2",2011-05-04 15:45:51,4,53,"Fix",1500,"NovelHLFA011_T3",2006,4,1
1,103,"AUS_CMFT_Cond2",2011-05-04 15:45:51,4,54.5,"TestSlide",1500,"NovelHLFA011_T3",2006,4,1
1,103,"AUS_CMFT_Cond2",2011-05-04 15:45:51,5,59,"Fix",7500,"NovelFBLA004_T3",2573,4,1
1,103,"AUS_CMFT_Cond2",2011-05-04 15:45:51,5,66.5,"TestSlide",7500,"NovelFBLA004_T3",2573,4,1
1,103,"AUS_CMFT_Cond2",2011-05-04 15:45:51,6,71,"Fix",3000,"Novel60LA022_T2",3308,3,1
1,103,"AUS_CMFT_Cond2",2011-05-04 15:45:51,6,74,"TestSlide",3000,"Novel60LA022_T2",3308,3,1
1,103,"AUS_CMFT_Cond2",2011-05-04 15:45:51,7,78.5,"Fix",7500,"NovelFBLA011_T1",1951,2,1
1,103,"AUS_CMFT_Cond2",2011-05-04 15:45:51,7,86,"TestSlide",7500,"NovelFBLA011_T1",1951,2,1
1,103,"AUS_CMFT_Cond2",2011-05-04 15:45:51,8,90.5,"Fix",7500,"NovelHLFA076_T3",3975,4,0
1,103,"AUS_CMFT_Cond2",2011-05-04 15:45:51,8,98,"TestSlide",7500,"NovelHLFA076_T3",3975,4,0
1,103,"AUS_CMFT_Cond2",2011-05-04 15:45:51,9,102.5,"Fix",1500,"Novel60LA040_T2",4453,3,1
1,103,"AUS_CMFT_Cond2",2011-05-04 15:45:51,9,104,"TestSlide",1500,"Novel60LA040_T2",4453,3,1
1,103,"AUS_CMFT_Cond2",2011-05-04 15:45:51,10,108.5,"Fix",7500,"NovelFBLA022_T3",2993,4,1
1,103,"AUS_CMFT_Cond2",2011-05-04 15:45:51,10,116,"TestSlide",7500,"NovelFBLA022_T3",2993,4,1
1,103,"AUS_CMFT_Cond2",2011-05-04 15:45:51,11,120.5,"Fix",3000,"Novel60RA049_T2",NA,3,0
1,103,"AUS_CMFT_Cond2",2011-05-04 15:45:51,11,123.5,"TestSlide",3000,"Novel60RA049_T2",NA,3,0
1,103,"AUS_CMFT_Cond2",2011-05-04 15:45:51,12,128,"Fix",7500,"Novel30RHSA040_T3",2759,4,1
1,103,"AUS_CMFT_Cond2",2011-05-04 15:45:51,12,135.5,"TestSlide",7500,"Novel30RHSA040_T3",2759,4,1
1,103,"AUS_CMFT_Cond2",2011-05-04 15:45:51,13,140,"Fix",7500,"NovelHLFA022_T3",2513,4,1
1,103,"AUS_CMFT_Cond2",2011-05-04 15:45:51,13,147.5,"TestSlide",7500,"NovelHLFA022_T3",2513,4,1
1,103,"AUS_CMFT_Cond2",2011-05-04 15:45:51,14,152,"Fix",4500,"NovelFBLA049_T2",3539,3,1
1,103,"AUS_CMFT_Cond2",2011-05-04 15:45:51,14,156.5,"TestSlide",4500,"NovelFBLA049_T2",3539,3,1
1,103,"AUS_CMFT_Cond2",2011-05-04 15:45:51,15,161,"Fix",4500,"Novel60RA076_T2",3828,3,1
1,103,"AUS_CMFT_Cond2",2011-05-04 15:45:51,15,165.5,"TestSlide",4500,"Novel60RA076_T2",3828,3,1
1,103,"AUS_CMFT_Cond2",2011-05-04 15:45:51,16,170,"Fix",7500,"Novel30RHSA011_T2",2493,3,1
1,103,"AUS_CMFT_Cond2",2011-05-04 15:45:51,16,177.5,"TestSlide",7500,"Novel30RHSA011_T2",2493,3,1
1,103,"AUS_CMFT_Cond2",2011-05-04 15:45:51,17,182,"Fix",7500,"NovelFBLA040_T2",NA,3,0
1,103,"AUS_CMFT_Cond2",2011-05-04 15:45:51,17,189.5,"TestSlide",7500,"NovelFBLA040_T2",NA,3,0
1,103,"AUS_CMFT_Cond2",2011-05-04 15:45:51,18,194,"Fix",7500,"Novel60RA004_T2",1976,3,1
1,103,"AUS_CMFT_Cond2",2011-05-04 15:45:51,18,201.5,"TestSlide",7500,"Novel60RA004_T2",1976,3,1
1,103,"AUS_CMFT_Cond2",2011-05-04 15:45:51,19,206,"Fix",3000,"Novel60LA011_T3",1995,4,1
1,103,"AUS_CMFT_Cond2",2011-05-04 15:45:51,19,209,"TestSlide",3000,"Novel60LA011_T3",1995,4,1
1,103,"AUS_CMFT_Cond2",2011-05-04 15:45:51,20,213.5,"Fix",7500,"NovelHLFA049_T3",1655,4,1
1,103,"AUS_CMFT_Cond2",2011-05-04 15:45:51,20,221,"TestSlide",7500,"NovelHLFA049_T3",1655,4,1
1,103,"AUS_CMFT_Cond2",2011-05-04 15:45:51,21,225.5,"Fix",7500,"Novel60LA004_T1",2122,2,1
1,103,"AUS_CMFT_Cond2",2011-05-04 15:45:51,21,233,"TestSlide",7500,"Novel60LA004_T1",2122,2,1
1,103,"AUS_CMFT_Cond2",2011-05-04 15:45:51,22,237.5,"Fix",7500,"Novel30RHSA076_T2",2801,3,1
1,103,"AUS_CMFT_Cond2",2011-05-04 15:45:51,22,245,"TestSlide",7500,"Novel30RHSA076_T2",2801,3,1
1,103,"AUS_CMFT_Cond2",2011-05-04 15:45:51,23,249.5,"Fix",4500,"Novel60RA022_T2",3035,3,1
1,103,"AUS_CMFT_Cond2",2011-05-04 15:45:51,23,254,"TestSlide",4500,"Novel60RA022_T2",3035,3,1
1,103,"AUS_CMFT_Cond2",2011-05-04 15:45:51,24,258.5,"Fix",7500,"Novel30RHSA004_T3",3015,4,1
1,103,"AUS_CMFT_Cond2",2011-05-04 15:45:51,24,266,"TestSlide",7500,"Novel30RHSA004_T3",3015,4,1
1,103,"AUS_CMFT_Cond2",2011-05-04 15:45:51,25,270.5,"Fix",1500,"Novel60RA040_T3",3219,4,1
1,103,"AUS_CMFT_Cond2",2011-05-04 15:45:51,25,272,"TestSlide",1500,"Novel60RA040_T3",3219,4,1
1,103,"AUS_CMFT_Cond2",2011-05-04 15:45:51,26,276.5,"Fix",7500,"Novel30RHSA022_T1",3753,2,1
1,103,"AUS_CMFT_Cond2",2011-05-04 15:45:51,26,284,"TestSlide",7500,"Novel30RHSA022_T1",3753,2,1
1,103,"AUS_CMFT_Cond2",2011-05-04 15:45:51,27,288.5,"Fix",7500,"NovelFBLA076_T2",3534,3,1
1,103,"AUS_CMFT_Cond2",2011-05-04 15:45:51,27,296,"TestSlide",7500,"NovelFBLA076_T2",3534,3,1
1,103,"AUS_CMFT_Cond2",2011-05-04 15:45:51,28,300.5,"Fix",1500,"Novel60RA011_T1",3573,2,1
1,103,"AUS_CMFT_Cond2",2011-05-04 15:45:51,28,302,"TestSlide",1500,"Novel60RA011_T1",3573,2,1
1,103,"AUS_CMFT_Cond2",2011-05-04 15:45:51,29,306.5,"Fix",3000,"Novel60LA049_T1",3117,2,1
1,103,"AUS_CMFT_Cond2",2011-05-04 15:45:51,29,309.5,"TestSlide",3000,"Novel60LA049_T1",3117,2,1
1,103,"AUS_CMFT_Cond2",2011-05-04 15:45:51,30,314,"Fix",4500,"NovelHLFA004_T3",2245,4,1
1,103,"AUS_CMFT_Cond2",2011-05-04 15:45:51,30,318.5,"TestSlide",4500,"NovelHLFA004_T3",2245,4,1
1,103,"Cars_Cond2",2011-05-04 16:10:28,1,29,"Fix",3000,"5_CI_Side1_Cond2_2_resize",3737,3,1
1,103,"Cars_Cond2",2011-05-04 16:10:28,1,32,"TestSlide",3000,"5_CI_Side1_Cond2_2_resize",3737,3,1
1,103,"Cars_Cond2",2011-05-04 16:10:28,2,36.5,"Fix",3000,"1_ARL_Back_Cond2_3",NA,4,0
1,103,"Cars_Cond2",2011-05-04 16:10:28,2,39.5,"TestSlide",3000,"1_ARL_Back_Cond2_3",NA,4,0
1,103,"Cars_Cond2",2011-05-04 16:10:28,3,44,"Fix",1500,"6_TC_Side1_Cond2_2",2521,3,1
1,103,"Cars_Cond2",2011-05-04 16:10:28,3,45.5,"TestSlide",1500,"6_TC_Side1_Cond2_2",2521,3,1
1,103,"Cars_Cond2",2011-05-04 16:10:28,4,50,"Fix",6000,"2_HC_Front1_Cond2_2",3165,3,0
1,103,"Cars_Cond2",2011-05-04 16:10:28,4,56,"TestSlide",6000,"2_HC_Front1_Cond2_2",3165,3,0
1,103,"Cars_Cond2",2011-05-04 16:10:28,5,60.5,"Fix",4500,"5_CI_Front1_Cond2_1",3114,2,0
1,103,"Cars_Cond2",2011-05-04 16:10:28,5,65,"TestSlide",4500,"5_CI_Front1_Cond2_1",3114,2,0
1,103,"Cars_Cond2",2011-05-04 16:10:28,6,69.5,"Fix",7500,"3_FT_Back_Cond2_3",3033,4,0
1,103,"Cars_Cond2",2011-05-04 16:10:28,6,77,"TestSlide",7500,"3_FT_Back_Cond2_3",3033,4,0
1,103,"Cars_Cond2",2011-05-04 16:10:28,7,81.5,"Fix",3000,"4_KS_Side1_Cond2_3",3083,4,0
1,103,"Cars_Cond2",2011-05-04 16:10:28,7,84.5,"TestSlide",3000,"4_KS_Side1_Cond2_3",3083,4,0
1,103,"Cars_Cond2",2011-05-04 16:10:28,8,89,"Fix",7500,"6_TC_Side2_Cond2_1",3080,2,0
1,103,"Cars_Cond2",2011-05-04 16:10:28,8,96.5,"TestSlide",7500,"6_TC_Side2_Cond2_1",3080,2,0
1,103,"Cars_Cond2",2011-05-04 16:10:28,9,101,"Fix",7500,"1_ARL_Front1_Cond2_3",4305,4,1
1,103,"Cars_Cond2",2011-05-04 16:10:28,9,108.5,"TestSlide",7500,"1_ARL_Front1_Cond2_3",4305,4,1
1,103,"Cars_Cond2",2011-05-04 16:10:28,10,113,"Fix",6000,"2_HC_Front2_Cond2_2",3727,3,0
1,103,"Cars_Cond2",2011-05-04 16:10:28,10,119,"TestSlide",6000,"2_HC_Front2_Cond2_2",3727,3,0
1,103,"Cars_Cond2",2011-05-04 16:10:28,11,123.5,"Fix",1500,"4_KS_Back_Cond2_1",3268,2,1
1,103,"Cars_Cond2",2011-05-04 16:10:28,11,125,"TestSlide",1500,"4_KS_Back_Cond2_1",3268,2,1
1,103,"Cars_Cond2",2011-05-04 16:10:28,12,129.5,"Fix",6000,"3_FT_Side1_Cond2_2",3307,3,0
1,103,"Cars_Cond2",2011-05-04 16:10:28,12,135.5,"TestSlide",6000,"3_FT_Side1_Cond2_2",3307,3,0
1,103,"Cars_Cond2",2011-05-04 16:10:28,13,140,"Fix",3000,"5_CI_Back_Cond2_2",NA,3,0
1,103,"Cars_Cond2",2011-05-04 16:10:28,13,143,"TestSlide",3000,"5_CI_Back_Cond2_2",NA,3,0
1,103,"Cars_Cond2",2011-05-04 16:10:28,14,147.5,"Fix",7500,"1_ARL_Side1_Cond2_2",3518,3,0
1,103,"Cars_Cond2",2011-05-04 16:10:28,14,155,"TestSlide",7500,"1_ARL_Side1_Cond2_2",3518,3,0
1,103,"Cars_Cond2",2011-05-04 16:10:28,15,159.5,"Fix",7500,"6_TC_Front1_Cond2_3",3525,4,1
1,103,"Cars_Cond2",2011-05-04 16:10:28,15,167,"TestSlide",7500,"6_TC_Front1_Cond2_3",3525,4,1
1,103,"Cars_Cond2",2011-05-04 16:10:28,16,171.5,"Fix",3000,"2_HC_Side1_Cond2_1",2430,2,0
1,103,"Cars_Cond2",2011-05-04 16:10:28,16,174.5,"TestSlide",3000,"2_HC_Side1_Cond2_1",2430,2,0
1,103,"Cars_Cond2",2011-05-04 16:10:28,17,179,"Fix",3000,"4_KS_Front1_Cond2_3",4099,4,0
1,103,"Cars_Cond2",2011-05-04 16:10:28,17,182,"TestSlide",3000,"4_KS_Front1_Cond2_3",4099,4,0
1,103,"Cars_Cond2",2011-05-04 16:10:28,18,186.5,"Fix",3000,"5_CI_Front2_Cond2_1",2148,2,1
1,103,"Cars_Cond2",2011-05-04 16:10:28,18,189.5,"TestSlide",3000,"5_CI_Front2_Cond2_1",2148,2,1
1,103,"Cars_Cond2",2011-05-04 16:10:28,19,194,"Fix",7500,"3_FT_Front1_Cond2_1",3462,2,0
1,103,"Cars_Cond2",2011-05-04 16:10:28,19,201.5,"TestSlide",7500,"3_FT_Front1_Cond2_1",3462,2,0
1,103,"Cars_Cond2",2011-05-04 16:10:28,20,206,"Fix",4500,"1_ARL_Side2_Cond2_2",3941,3,0
1,103,"Cars_Cond2",2011-05-04 16:10:28,20,210.5,"TestSlide",4500,"1_ARL_Side2_Cond2_2",3941,3,0
1,103,"Cars_Cond2",2011-05-04 16:10:28,21,215,"Fix",1500,"4_KS_Side2_Cond2_1",3670,2,0
1,103,"Cars_Cond2",2011-05-04 16:10:28,21,216.5,"TestSlide",1500,"4_KS_Side2_Cond2_1",3670,2,0
1,103,"Cars_Cond2",2011-05-04 16:10:28,22,221,"Fix",3000,"6_TC_Front2_Cond2_3",4185,4,0
1,103,"Cars_Cond2",2011-05-04 16:10:28,22,224,"TestSlide",3000,"6_TC_Front2_Cond2_3",4185,4,0
1,103,"Cars_Cond2",2011-05-04 16:10:28,23,228.5,"Fix",7500,"2_HC_Side2_Cond2_3",3616,4,1
1,103,"Cars_Cond2",2011-05-04 16:10:28,23,236,"TestSlide",7500,"2_HC_Side2_Cond2_3",3616,4,1
1,103,"Cars_Cond2",2011-05-04 16:10:28,24,240.5,"Fix",7500,"3_FT_Front2_Cond2_1",4093,2,0
1,103,"Cars_Cond2",2011-05-04 16:10:28,24,248,"TestSlide",7500,"3_FT_Front2_Cond2_1",4093,2,0
1,103,"Cars_Cond2",2011-05-04 16:10:28,25,252.5,"Fix",6000,"6_TC_Back_Cond2_3",NA,4,0
1,103,"Cars_Cond2",2011-05-04 16:10:28,25,258.5,"TestSlide",6000,"6_TC_Back_Cond2_3",NA,4,0
1,103,"Cars_Cond2",2011-05-04 16:10:28,26,263,"Fix",4500,"1_ARL_Front2_Cond2_2",2835,3,0
1,103,"Cars_Cond2",2011-05-04 16:10:28,26,267.5,"TestSlide",4500,"1_ARL_Front2_Cond2_2",2835,3,0
1,103,"Cars_Cond2",2011-05-04 16:10:28,27,272,"Fix",7500,"5_CI_Side2_Cond2_2",2687,3,0
1,103,"Cars_Cond2",2011-05-04 16:10:28,27,279.5,"TestSlide",7500,"5_CI_Side2_Cond2_2",2687,3,0
1,103,"Cars_Cond2",2011-05-04 16:10:28,28,284,"Fix",7500,"4_KS_Front2_Cond2_2",1546,3,0
1,103,"Cars_Cond2",2011-05-04 16:10:28,28,291.5,"TestSlide",7500,"4_KS_Front2_Cond2_2",1546,3,0
1,103,"Cars_Cond2",2011-05-04 16:10:28,29,296,"Fix",7500,"3_FT_Side2_Cond2_3",4414,4,0
1,103,"Cars_Cond2",2011-05-04 16:10:28,29,303.5,"TestSlide",7500,"3_FT_Side2_Cond2_3",4414,4,0
1,103,"Cars_Cond2",2011-05-04 16:10:28,30,308,"Fix",7500,"2_HC_Back_Cond2_2",3592,3,1
1,103,"Cars_Cond2",2011-05-04 16:10:28,30,315.5,"TestSlide",7500,"2_HC_Back_Cond2_2",3592,3,1
1,103,"CMFT_Cond2",2011-05-04 15:58:00,1,29,"Fix",1500,"M_5_Front_Halflit",1813,2,1
1,103,"CMFT_Cond2",2011-05-04 15:58:00,1,30.5,"TestSlide",1500,"M_5_Front_Halflit",1813,2,1
1,103,"CMFT_Cond2",2011-05-04 15:58:00,2,35,"Fix",6000,"N_8_13_R_Pro_dark",1632,3,1
1,103,"CMFT_Cond2",2011-05-04 15:58:00,2,41,"TestSlide",6000,"N_8_13_R_Pro_dark",1632,3,1
1,103,"CMFT_Cond2",2011-05-04 15:58:00,3,45.5,"Fix",1500,"Z_6_23_Pro_L",1795,2,1
1,103,"CMFT_Cond2",2011-05-04 15:58:00,3,47,"TestSlide",1500,"Z_6_23_Pro_L",1795,2,1
1,103,"CMFT_Cond2",2011-05-04 15:58:00,4,51.5,"Fix",7500,"D5_Halflit_Frontal",2660,4,1
1,103,"CMFT_Cond2",2011-05-04 15:58:00,4,59,"TestSlide",7500,"D5_Halflit_Frontal",2660,4,1
1,103,"CMFT_Cond2",2011-05-04 15:58:00,5,63.5,"Fix",7500,"B7_Bottomlit_Frontal",3343,4,1
1,103,"CMFT_Cond2",2011-05-04 15:58:00,5,71,"TestSlide",7500,"B7_Bottomlit_Frontal",3343,4,1
1,103,"CMFT_Cond2",2011-05-04 15:58:00,6,75.5,"Fix",7500,"J_6_23_L_Pro",1710,3,1
1,103,"CMFT_Cond2",2011-05-04 15:58:00,6,83,"TestSlide",7500,"J_6_23_L_Pro",1710,3,1
1,103,"CMFT_Cond2",2011-05-04 15:58:00,7,87.5,"Fix",7500,"D7_Bottomlit_Frontal",3130,2,0
1,103,"CMFT_Cond2",2011-05-04 15:58:00,7,95,"TestSlide",7500,"D7_Bottomlit_Frontal",3130,2,0
1,103,"CMFT_Cond2",2011-05-04 15:58:00,8,99.5,"Fix",1500,"Z_5_Front_Half",2816,4,1
1,103,"CMFT_Cond2",2011-05-04 15:58:00,8,101,"TestSlide",1500,"Z_5_Front_Half",2816,4,1
1,103,"CMFT_Cond2",2011-05-04 15:58:00,9,105.5,"Fix",7500,"M_6_23_L_Pro",1536,3,1
1,103,"CMFT_Cond2",2011-05-04 15:58:00,9,113,"TestSlide",7500,"M_6_23_L_Pro",1536,3,1
1,103,"CMFT_Cond2",2011-05-04 15:58:00,10,117.5,"Fix",4500,"J_7_Bottom_Lit",2391,4,1
1,103,"CMFT_Cond2",2011-05-04 15:58:00,10,122,"TestSlide",4500,"J_7_Bottom_Lit",2391,4,1
1,103,"CMFT_Cond2",2011-05-04 15:58:00,11,126.5,"Fix",7500,"N_4_23_R_Pro",1800,3,1
1,103,"CMFT_Cond2",2011-05-04 15:58:00,11,134,"TestSlide",7500,"N_4_23_R_Pro",1800,3,1
1,103,"CMFT_Cond2",2011-05-04 15:58:00,12,138.5,"Fix",6000,"M_8_13_R_Pro_dark",2630,4,1
1,103,"CMFT_Cond2",2011-05-04 15:58:00,12,144.5,"TestSlide",6000,"M_8_13_R_Pro_dark",2630,4,1
1,103,"CMFT_Cond2",2011-05-04 15:58:00,13,149,"Fix",1500,"J_5_Front_Halflit",1837,3,1
1,103,"CMFT_Cond2",2011-05-04 15:58:00,13,150.5,"TestSlide",1500,"J_5_Front_Halflit",1837,3,1
1,103,"CMFT_Cond2",2011-05-04 15:58:00,14,155,"Fix",4500,"N_7_Front_Bot",2053,2,1
1,103,"CMFT_Cond2",2011-05-04 15:58:00,14,159.5,"TestSlide",4500,"N_7_Front_Bot",2053,2,1
1,103,"CMFT_Cond2",2011-05-04 15:58:00,15,164,"Fix",7500,"Z_4_23_Pro_R",3423,3,1
1,103,"CMFT_Cond2",2011-05-04 15:58:00,15,171.5,"TestSlide",7500,"Z_4_23_Pro_R",3423,3,1
1,103,"CMFT_Cond2",2011-05-04 15:58:00,16,176,"Fix",4500,"D8_13_Profile_R",2791,3,1
1,103,"CMFT_Cond2",2011-05-04 15:58:00,16,180.5,"TestSlide",4500,"D8_13_Profile_R",2791,3,1
1,103,"CMFT_Cond2",2011-05-04 15:58:00,17,185,"Fix",1500,"M_7_Front_Bot",2111,3,1
1,103,"CMFT_Cond2",2011-05-04 15:58:00,17,186.5,"TestSlide",1500,"M_7_Front_Bot",2111,3,1
1,103,"CMFT_Cond2",2011-05-04 15:58:00,18,191,"Fix",7500,"B4_23_pro_ri",4286,3,0
1,103,"CMFT_Cond2",2011-05-04 15:58:00,18,198.5,"TestSlide",7500,"B4_23_pro_ri",4286,3,0
1,103,"CMFT_Cond2",2011-05-04 15:58:00,19,203,"Fix",6000,"D6_23_Profile_L",4227,2,0
1,103,"CMFT_Cond2",2011-05-04 15:58:00,19,209,"TestSlide",6000,"D6_23_Profile_L",4227,2,0
1,103,"CMFT_Cond2",2011-05-04 15:58:00,20,213.5,"Fix",4500,"N_5_Front_Half",1859,4,1
1,103,"CMFT_Cond2",2011-05-04 15:58:00,20,218,"TestSlide",4500,"N_5_Front_Half",1859,4,1
1,103,"CMFT_Cond2",2011-05-04 15:58:00,21,222.5,"Fix",7500,"B6_23_pro_L",3293,2,0
1,103,"CMFT_Cond2",2011-05-04 15:58:00,21,230,"TestSlide",7500,"B6_23_pro_L",3293,2,0
1,103,"CMFT_Cond2",2011-05-04 15:58:00,22,234.5,"Fix",7500,"Z_8_13_Pro_R_dark",4003,3,1
1,103,"CMFT_Cond2",2011-05-04 15:58:00,22,242,"TestSlide",7500,"Z_8_13_Pro_R_dark",4003,3,1
1,103,"CMFT_Cond2",2011-05-04 15:58:00,23,246.5,"Fix",3000,"J_4_23_R_Pro",2400,3,1
1,103,"CMFT_Cond2",2011-05-04 15:58:00,23,249.5,"TestSlide",3000,"J_4_23_R_Pro",2400,3,1
1,103,"CMFT_Cond2",2011-05-04 15:58:00,24,254,"Fix",7500,"B8_13_pro_R_HS",4333,2,1
1,103,"CMFT_Cond2",2011-05-04 15:58:00,24,261.5,"TestSlide",7500,"B8_13_pro_R_HS",4333,2,1
1,103,"CMFT_Cond2",2011-05-04 15:58:00,25,266,"Fix",1500,"M_4_23_R_Pro",3864,4,1
1,103,"CMFT_Cond2",2011-05-04 15:58:00,25,267.5,"TestSlide",1500,"M_4_23_R_Pro",3864,4,1
1,103,"CMFT_Cond2",2011-05-04 15:58:00,26,272,"Fix",7500,"J_8_13_r_pro_dark",2648,2,1
1,103,"CMFT_Cond2",2011-05-04 15:58:00,26,279.5,"TestSlide",7500,"J_8_13_r_pro_dark",2648,2,1
1,103,"CMFT_Cond2",2011-05-04 15:58:00,27,284,"Fix",7500,"Z_7_Front_Bot",2279,3,1
1,103,"CMFT_Cond2",2011-05-04 15:58:00,27,291.5,"TestSlide",7500,"Z_7_Front_Bot",2279,3,1
1,103,"CMFT_Cond2",2011-05-04 15:58:00,28,296,"Fix",7500,"D4_23_profile_R",2393,2,1
1,103,"CMFT_Cond2",2011-05-04 15:58:00,28,303.5,"TestSlide",7500,"D4_23_profile_R",2393,2,1
1,103,"CMFT_Cond2",2011-05-04 15:58:00,29,308,"Fix",4500,"N_6_23_L_Pro",2579,2,1
1,103,"CMFT_Cond2",2011-05-04 15:58:00,29,312.5,"TestSlide",4500,"N_6_23_L_Pro",2579,2,1
1,103,"CMFT_Cond2",2011-05-04 15:58:00,30,317,"Fix",3000,"B5_halflit_frontal",3718,4,1
1,103,"CMFT_Cond2",2011-05-04 15:58:00,30,320,"TestSlide",3000,"B5_halflit_frontal",3718,4,1
2,103,"AUS_CMFT_Cond2",2013-01-09 13:43:24,1,29,"Fix",1500,"NovelHLFA040_T1",3495,2,1
2,103,"AUS_CMFT_Cond2",2013-01-09 13:43:24,1,30.5,"TestSlide",1500,"NovelHLFA040_T1",3495,2,1
2,103,"AUS_CMFT_Cond2",2013-01-09 13:43:24,2,35,"Fix",7500,"Novel30RHSA049_T3",1460,4,1
2,103,"AUS_CMFT_Cond2",2013-01-09 13:43:24,2,42.5,"TestSlide",7500,"Novel30RHSA049_T3",1460,4,1
2,103,"AUS_CMFT_Cond2",2013-01-09 13:43:24,3,47,"Fix",1500,"Novel60LA076_T1",3722,2,1
2,103,"AUS_CMFT_Cond2",2013-01-09 13:43:24,3,48.5,"TestSlide",1500,"Novel60LA076_T1",3722,2,1
2,103,"AUS_CMFT_Cond2",2013-01-09 13:43:24,4,53,"Fix",1500,"NovelHLFA011_T3",2454,4,1
2,103,"AUS_CMFT_Cond2",2013-01-09 13:43:24,4,54.5,"TestSlide",1500,"NovelHLFA011_T3",2454,4,1
2,103,"AUS_CMFT_Cond2",2013-01-09 13:43:24,5,59,"Fix",7500,"NovelFBLA004_T3",1772,4,1
2,103,"AUS_CMFT_Cond2",2013-01-09 13:43:24,5,66.5,"TestSlide",7500,"NovelFBLA004_T3",1772,4,1
2,103,"AUS_CMFT_Cond2",2013-01-09 13:43:24,6,71,"Fix",3000,"Novel60LA022_T2",2871,3,1
2,103,"AUS_CMFT_Cond2",2013-01-09 13:43:24,6,74,"TestSlide",3000,"Novel60LA022_T2",2871,3,1
2,103,"AUS_CMFT_Cond2",2013-01-09 13:43:24,7,78.5,"Fix",7500,"NovelFBLA011_T1",1806,2,1
2,103,"AUS_CMFT_Cond2",2013-01-09 13:43:24,7,86,"TestSlide",7500,"NovelFBLA011_T1",1806,2,1
2,103,"AUS_CMFT_Cond2",2013-01-09 13:43:24,8,90.5,"Fix",7500,"NovelHLFA076_T3",2657,4,1
2,103,"AUS_CMFT_Cond2",2013-01-09 13:43:24,8,98,"TestSlide",7500,"NovelHLFA076_T3",2657,4,1
2,103,"AUS_CMFT_Cond2",2013-01-09 13:43:24,9,102.5,"Fix",1500,"Novel60LA040_T2",NA,3,0
2,103,"AUS_CMFT_Cond2",2013-01-09 13:43:24,9,104,"TestSlide",1500,"Novel60LA040_T2",NA,3,0
2,103,"AUS_CMFT_Cond2",2013-01-09 13:43:24,10,108.5,"Fix",7500,"NovelFBLA022_T3",2800,4,1
2,103,"AUS_CMFT_Cond2",2013-01-09 13:43:24,10,116,"TestSlide",7500,"NovelFBLA022_T3",2800,4,1
2,103,"AUS_CMFT_Cond2",2013-01-09 13:43:24,11,120.5,"Fix",3000,"Novel60RA049_T2",2116,3,1
2,103,"AUS_CMFT_Cond2",2013-01-09 13:43:24,11,123.5,"TestSlide",3000,"Novel60RA049_T2",2116,3,1
2,103,"AUS_CMFT_Cond2",2013-01-09 13:43:24,12,128,"Fix",7500,"Novel30RHSA040_T3",2451,4,1
2,103,"AUS_CMFT_Cond2",2013-01-09 13:43:24,12,135.5,"TestSlide",7500,"Novel30RHSA040_T3",2451,4,1
2,103,"AUS_CMFT_Cond2",2013-01-09 13:43:24,13,140,"Fix",7500,"NovelHLFA022_T3",2161,4,1
2,103,"AUS_CMFT_Cond2",2013-01-09 13:43:24,13,147.5,"TestSlide",7500,"NovelHLFA022_T3",2161,4,1
2,103,"AUS_CMFT_Cond2",2013-01-09 13:43:24,14,152,"Fix",4500,"NovelFBLA049_T2",1343,3,1
2,103,"AUS_CMFT_Cond2",2013-01-09 13:43:24,14,156.5,"TestSlide",4500,"NovelFBLA049_T2",1343,3,1
2,103,"AUS_CMFT_Cond2",2013-01-09 13:43:24,15,161,"Fix",4500,"Novel60RA076_T2",2673,3,1
2,103,"AUS_CMFT_Cond2",2013-01-09 13:43:24,15,165.5,"TestSlide",4500,"Novel60RA076_T2",2673,3,1
2,103,"AUS_CMFT_Cond2",2013-01-09 13:43:24,16,170,"Fix",7500,"Novel30RHSA011_T2",2772,3,1
2,103,"AUS_CMFT_Cond2",2013-01-09 13:43:24,16,177.5,"TestSlide",7500,"Novel30RHSA011_T2",2772,3,1
2,103,"AUS_CMFT_Cond2",2013-01-09 13:43:24,17,182,"Fix",7500,"NovelFBLA040_T2",3010,3,0
2,103,"AUS_CMFT_Cond2",2013-01-09 13:43:24,17,189.5,"TestSlide",7500,"NovelFBLA040_T2",3010,3,0
2,103,"AUS_CMFT_Cond2",2013-01-09 13:43:24,18,194,"Fix",7500,"Novel60RA004_T2",NA,3,0
2,103,"AUS_CMFT_Cond2",2013-01-09 13:43:24,18,201.5,"TestSlide",7500,"Novel60RA004_T2",NA,3,0
2,103,"AUS_CMFT_Cond2",2013-01-09 13:43:24,19,206,"Fix",3000,"Novel60LA011_T3",NA,4,0
2,103,"AUS_CMFT_Cond2",2013-01-09 13:43:24,19,209,"TestSlide",3000,"Novel60LA011_T3",NA,4,0
2,103,"AUS_CMFT_Cond2",2013-01-09 13:43:24,20,213.5,"Fix",7500,"NovelHLFA049_T3",1479,4,1
2,103,"AUS_CMFT_Cond2",2013-01-09 13:43:24,20,221,"TestSlide",7500,"NovelHLFA049_T3",1479,4,1
2,103,"AUS_CMFT_Cond2",2013-01-09 13:43:24,21,225.5,"Fix",7500,"Novel60LA004_T1",1462,2,1
2,103,"AUS_CMFT_Cond2",2013-01-09 13:43:24,21,233,"TestSlide",7500,"Novel60LA004_T1",1462,2,1
2,103,"AUS_CMFT_Cond2",2013-01-09 13:43:24,22,237.5,"Fix",7500,"Novel30RHSA076_T2",3212,3,0
2,103,"AUS_CMFT_Cond2",2013-01-09 13:43:24,22,245,"TestSlide",7500,"Novel30RHSA076_T2",3212,3,0
2,103,"AUS_CMFT_Cond2",2013-01-09 13:43:24,23,249.5,"Fix",4500,"Novel60RA022_T2",2261,3,1
2,103,"AUS_CMFT_Cond2",2013-01-09 13:43:24,23,254,"TestSlide",4500,"Novel60RA022_T2",2261,3,1
2,103,"AUS_CMFT_Cond2",2013-01-09 13:43:24,24,258.5,"Fix",7500,"Novel30RHSA004_T3",1493,4,1
2,103,"AUS_CMFT_Cond2",2013-01-09 13:43:24,24,266,"TestSlide",7500,"Novel30RHSA004_T3",1493,4,1
2,103,"AUS_CMFT_Cond2",2013-01-09 13:43:24,25,270.5,"Fix",1500,"Novel60RA040_T3",3175,4,1
2,103,"AUS_CMFT_Cond2",2013-01-09 13:43:24,25,272,"TestSlide",1500,"Novel60RA040_T3",3175,4,1
2,103,"AUS_CMFT_Cond2",2013-01-09 13:43:24,26,276.5,"Fix",7500,"Novel30RHSA022_T1",2150,2,0
2,103,"AUS_CMFT_Cond2",2013-01-09 13:43:24,26,284,"TestSlide",7500,"Novel30RHSA022_T1",2150,2,0
2,103,"AUS_CMFT_Cond2",2013-01-09 13:43:24,27,288.5,"Fix",7500,"NovelFBLA076_T2",3654,3,0
2,103,"AUS_CMFT_Cond2",2013-01-09 13:43:24,27,296,"TestSlide",7500,"NovelFBLA076_T2",3654,3,0
2,103,"AUS_CMFT_Cond2",2013-01-09 13:43:24,28,300.5,"Fix",1500,"Novel60RA011_T1",2304,2,1
2,103,"AUS_CMFT_Cond2",2013-01-09 13:43:24,28,302,"TestSlide",1500,"Novel60RA011_T1",2304,2,1
2,103,"AUS_CMFT_Cond2",2013-01-09 13:43:24,29,306.5,"Fix",3000,"Novel60LA049_T1",2737,2,1
2,103,"AUS_CMFT_Cond2",2013-01-09 13:43:24,29,309.5,"TestSlide",3000,"Novel60LA049_T1",2737,2,1
2,103,"AUS_CMFT_Cond2",2013-01-09 13:43:24,30,314,"Fix",4500,"NovelHLFA004_T3",1637,4,1
2,103,"AUS_CMFT_Cond2",2013-01-09 13:43:24,30,318.5,"TestSlide",4500,"NovelHLFA004_T3",1637,4,1
2,103,"Cars_Cond2",2013-01-09 13:30:49,1,29,"Fix",3000,"5_CI_Side1_Cond2_2_resize",1397,3,1
2,103,"Cars_Cond2",2013-01-09 13:30:49,1,32,"TestSlide",3000,"5_CI_Side1_Cond2_2_resize",1397,3,1
2,103,"Cars_Cond2",2013-01-09 13:30:49,2,36.5,"Fix",3000,"1_ARL_Back_Cond2_3",3176,4,1
2,103,"Cars_Cond2",2013-01-09 13:30:49,2,39.6,"TestSlide",3000,"1_ARL_Back_Cond2_3",3176,4,1
2,103,"Cars_Cond2",2013-01-09 13:30:49,3,44,"Fix",1500,"6_TC_Side1_Cond2_2",2148,3,0
2,103,"Cars_Cond2",2013-01-09 13:30:49,3,45.6,"TestSlide",1500,"6_TC_Side1_Cond2_2",2148,3,0
2,103,"Cars_Cond2",2013-01-09 13:30:49,4,50,"Fix",6000,"2_HC_Front1_Cond2_2",4234,3,1
2,103,"Cars_Cond2",2013-01-09 13:30:49,4,56.1,"TestSlide",6000,"2_HC_Front1_Cond2_2",4234,3,1
2,103,"Cars_Cond2",2013-01-09 13:30:49,5,60.5,"Fix",4500,"5_CI_Front1_Cond2_1",1898,2,1
2,103,"Cars_Cond2",2013-01-09 13:30:49,5,65.1,"TestSlide",4500,"5_CI_Front1_Cond2_1",1898,2,1
2,103,"Cars_Cond2",2013-01-09 13:30:49,6,69.5,"Fix",7500,"3_FT_Back_Cond2_3",3192,4,0
2,103,"Cars_Cond2",2013-01-09 13:30:49,6,77.1,"TestSlide",7500,"3_FT_Back_Cond2_3",3192,4,0
2,103,"Cars_Cond2",2013-01-09 13:30:49,7,81.5,"Fix",3000,"4_KS_Side1_Cond2_3",2335,4,1
2,103,"Cars_Cond2",2013-01-09 13:30:49,7,84.6,"TestSlide",3000,"4_KS_Side1_Cond2_3",2335,4,1
2,103,"Cars_Cond2",2013-01-09 13:30:49,8,89,"Fix",7500,"6_TC_Side2_Cond2_1",2767,2,1
2,103,"Cars_Cond2",2013-01-09 13:30:49,8,96.6,"TestSlide",7500,"6_TC_Side2_Cond2_1",2767,2,1
2,103,"Cars_Cond2",2013-01-09 13:30:49,9,101,"Fix",7500,"1_ARL_Front1_Cond2_3",1859,4,1
2,103,"Cars_Cond2",2013-01-09 13:30:49,9,108.6,"TestSlide",7500,"1_ARL_Front1_Cond2_3",1859,4,1
2,103,"Cars_Cond2",2013-01-09 13:30:49,10,113,"Fix",6000,"2_HC_Front2_Cond2_2",2882,3,1
2,103,"Cars_Cond2",2013-01-09 13:30:49,10,119.1,"TestSlide",6000,"2_HC_Front2_Cond2_2",2882,3,1
2,103,"Cars_Cond2",2013-01-09 13:30:49,11,123.5,"Fix",1500,"4_KS_Back_Cond2_1",2284,2,0
2,103,"Cars_Cond2",2013-01-09 13:30:49,11,125.1,"TestSlide",1500,"4_KS_Back_Cond2_1",2284,2,0
2,103,"Cars_Cond2",2013-01-09 13:30:49,12,129.5,"Fix",6000,"3_FT_Side1_Cond2_2",1707,3,1
2,103,"Cars_Cond2",2013-01-09 13:30:49,12,135.6,"TestSlide",6000,"3_FT_Side1_Cond2_2",1707,3,1
2,103,"Cars_Cond2",2013-01-09 13:30:49,13,140,"Fix",3000,"5_CI_Back_Cond2_2",1618,3,1
2,103,"Cars_Cond2",2013-01-09 13:30:49,13,143.1,"TestSlide",3000,"5_CI_Back_Cond2_2",1618,3,1
2,103,"Cars_Cond2",2013-01-09 13:30:49,14,147.5,"Fix",7500,"1_ARL_Side1_Cond2_2",3893,3,0
2,103,"Cars_Cond2",2013-01-09 13:30:49,14,155.1,"TestSlide",7500,"1_ARL_Side1_Cond2_2",3893,3,0
2,103,"Cars_Cond2",2013-01-09 13:30:49,15,159.5,"Fix",7500,"6_TC_Front1_Cond2_3",2360,4,1
2,103,"Cars_Cond2",2013-01-09 13:30:49,15,167.1,"TestSlide",7500,"6_TC_Front1_Cond2_3",2360,4,1
2,103,"Cars_Cond2",2013-01-09 13:30:49,16,171.5,"Fix",3000,"2_HC_Side1_Cond2_1",2159,2,1
2,103,"Cars_Cond2",2013-01-09 13:30:49,16,174.6,"TestSlide",3000,"2_HC_Side1_Cond2_1",2159,2,1
2,103,"Cars_Cond2",2013-01-09 13:30:49,17,179.1,"Fix",3000,"4_KS_Front1_Cond2_3",2806,4,1
2,103,"Cars_Cond2",2013-01-09 13:30:49,17,182.1,"TestSlide",3000,"4_KS_Front1_Cond2_3",2806,4,1
2,103,"Cars_Cond2",2013-01-09 13:30:49,18,186.6,"Fix",3000,"5_CI_Front2_Cond2_1",2208,2,1
2,103,"Cars_Cond2",2013-01-09 13:30:49,18,189.6,"TestSlide",3000,"5_CI_Front2_Cond2_1",2208,2,1
2,103,"Cars_Cond2",2013-01-09 13:30:49,19,194.1,"Fix",7500,"3_FT_Front1_Cond2_1",1997,2,1
2,103,"Cars_Cond2",2013-01-09 13:30:49,19,201.6,"TestSlide",7500,"3_FT_Front1_Cond2_1",1997,2,1
2,103,"Cars_Cond2",2013-01-09 13:30:49,20,206.1,"Fix",4500,"1_ARL_Side2_Cond2_2",NA,3,0
2,103,"Cars_Cond2",2013-01-09 13:30:49,20,210.6,"TestSlide",4500,"1_ARL_Side2_Cond2_2",NA,3,0
2,103,"Cars_Cond2",2013-01-09 13:30:49,21,215.1,"Fix",1500,"4_KS_Side2_Cond2_1",1426,2,1
2,103,"Cars_Cond2",2013-01-09 13:30:49,21,216.6,"TestSlide",1500,"4_KS_Side2_Cond2_1",1426,2,1
2,103,"Cars_Cond2",2013-01-09 13:30:49,22,221.1,"Fix",3000,"6_TC_Front2_Cond2_3",1733,4,1
2,103,"Cars_Cond2",2013-01-09 13:30:49,22,224.1,"TestSlide",3000,"6_TC_Front2_Cond2_3",1733,4,1
2,103,"Cars_Cond2",2013-01-09 13:30:49,23,228.6,"Fix",7500,"2_HC_Side2_Cond2_3",1999,4,1
2,103,"Cars_Cond2",2013-01-09 13:30:49,23,236.1,"TestSlide",7500,"2_HC_Side2_Cond2_3",1999,4,1
2,103,"Cars_Cond2",2013-01-09 13:30:49,24,240.6,"Fix",7500,"3_FT_Front2_Cond2_1",3475,2,1
2,103,"Cars_Cond2",2013-01-09 13:30:49,24,248.1,"TestSlide",7500,"3_FT_Front2_Cond2_1",3475,2,1
2,103,"Cars_Cond2",2013-01-09 13:30:49,25,252.6,"Fix",6000,"6_TC_Back_Cond2_3",3554,4,1
2,103,"Cars_Cond2",2013-01-09 13:30:49,25,258.6,"TestSlide",6000,"6_TC_Back_Cond2_3",3554,4,1
2,103,"Cars_Cond2",2013-01-09 13:30:49,26,263.1,"Fix",4500,"1_ARL_Front2_Cond2_2",2358,3,1
2,103,"Cars_Cond2",2013-01-09 13:30:49,26,267.6,"TestSlide",4500,"1_ARL_Front2_Cond2_2",2358,3,1
2,103,"Cars_Cond2",2013-01-09 13:30:49,27,272.1,"Fix",7500,"5_CI_Side2_Cond2_2",2384,3,1
2,103,"Cars_Cond2",2013-01-09 13:30:49,27,279.7,"TestSlide",7500,"5_CI_Side2_Cond2_2",2384,3,1
2,103,"Cars_Cond2",2013-01-09 13:30:49,28,284.1,"Fix",7500,"4_KS_Front2_Cond2_2",1608,3,1
2,103,"Cars_Cond2",2013-01-09 13:30:49,28,291.6,"TestSlide",7500,"4_KS_Front2_Cond2_2",1608,3,1
2,103,"Cars_Cond2",2013-01-09 13:30:49,29,296.1,"Fix",7500,"3_FT_Side2_Cond2_3",3744,4,1
2,103,"Cars_Cond2",2013-01-09 13:30:49,29,303.6,"TestSlide",7500,"3_FT_Side2_Cond2_3",3744,4,1
2,103,"Cars_Cond2",2013-01-09 13:30:49,30,308.1,"Fix",7500,"2_HC_Back_Cond2_2",NA,3,0
2,103,"Cars_Cond2",2013-01-09 13:30:49,30,315.6,"TestSlide",7500,"2_HC_Back_Cond2_2",NA,3,0
2,103,"CMFT_Cond2",2013-01-09 13:56:18,1,29,"Fix",1500,"M_5_Front_Halflit",1869,2,1
2,103,"CMFT_Cond2",2013-01-09 13:56:18,1,30.5,"TestSlide",1500,"M_5_Front_Halflit",1869,2,1
2,103,"CMFT_Cond2",2013-01-09 13:56:18,2,35,"Fix",6000,"N_8_13_R_Pro_dark",1086,3,1
2,103,"CMFT_Cond2",2013-01-09 13:56:18,2,41,"TestSlide",6000,"N_8_13_R_Pro_dark",1086,3,1
2,103,"CMFT_Cond2",2013-01-09 13:56:18,3,45.5,"Fix",1500,"Z_6_23_Pro_L",1537,2,1
2,103,"CMFT_Cond2",2013-01-09 13:56:18,3,47,"TestSlide",1500,"Z_6_23_Pro_L",1537,2,1
2,103,"CMFT_Cond2",2013-01-09 13:56:18,4,51.5,"Fix",7500,"D5_Halflit_Frontal",2123,4,1
2,103,"CMFT_Cond2",2013-01-09 13:56:18,4,59,"TestSlide",7500,"D5_Halflit_Frontal",2123,4,1
2,103,"CMFT_Cond2",2013-01-09 13:56:18,5,63.5,"Fix",7500,"B7_Bottomlit_Frontal",2985,4,1
2,103,"CMFT_Cond2",2013-01-09 13:56:18,5,71,"TestSlide",7500,"B7_Bottomlit_Frontal",2985,4,1
2,103,"CMFT_Cond2",2013-01-09 13:56:18,6,75.5,"Fix",7500,"J_6_23_L_Pro",1725,3,1
2,103,"CMFT_Cond2",2013-01-09 13:56:18,6,83,"TestSlide",7500,"J_6_23_L_Pro",1725,3,1
2,103,"CMFT_Cond2",2013-01-09 13:56:18,7,87.5,"Fix",7500,"D7_Bottomlit_Frontal",1412,2,1
2,103,"CMFT_Cond2",2013-01-09 13:56:18,7,95,"TestSlide",7500,"D7_Bottomlit_Frontal",1412,2,1
2,103,"CMFT_Cond2",2013-01-09 13:56:18,8,99.5,"Fix",1500,"Z_5_Front_Half",1695,4,1
2,103,"CMFT_Cond2",2013-01-09 13:56:18,8,101,"TestSlide",1500,"Z_5_Front_Half",1695,4,1
2,103,"CMFT_Cond2",2013-01-09 13:56:18,9,105.5,"Fix",7500,"M_6_23_L_Pro",1449,3,1
2,103,"CMFT_Cond2",2013-01-09 13:56:18,9,113,"TestSlide",7500,"M_6_23_L_Pro",1449,3,1
2,103,"CMFT_Cond2",2013-01-09 13:56:18,10,117.5,"Fix",4500,"J_7_Bottom_Lit",1360,4,1
2,103,"CMFT_Cond2",2013-01-09 13:56:18,10,122,"TestSlide",4500,"J_7_Bottom_Lit",1360,4,1
2,103,"CMFT_Cond2",2013-01-09 13:56:18,11,126.5,"Fix",7500,"N_4_23_R_Pro",1203,3,1
2,103,"CMFT_Cond2",2013-01-09 13:56:18,11,134,"TestSlide",7500,"N_4_23_R_Pro",1203,3,1
2,103,"CMFT_Cond2",2013-01-09 13:56:18,12,138.5,"Fix",6000,"M_8_13_R_Pro_dark",1260,4,1
2,103,"CMFT_Cond2",2013-01-09 13:56:18,12,144.5,"TestSlide",6000,"M_8_13_R_Pro_dark",1260,4,1
2,103,"CMFT_Cond2",2013-01-09 13:56:18,13,149,"Fix",1500,"J_5_Front_Halflit",1274,3,1
2,103,"CMFT_Cond2",2013-01-09 13:56:18,13,150.5,"TestSlide",1500,"J_5_Front_Halflit",1274,3,1
2,103,"CMFT_Cond2",2013-01-09 13:56:18,14,155,"Fix",4500,"N_7_Front_Bot",1354,2,1
2,103,"CMFT_Cond2",2013-01-09 13:56:18,14,159.5,"TestSlide",4500,"N_7_Front_Bot",1354,2,1
2,103,"CMFT_Cond2",2013-01-09 13:56:18,15,164,"Fix",7500,"Z_4_23_Pro_R",1458,3,1
2,103,"CMFT_Cond2",2013-01-09 13:56:18,15,171.5,"TestSlide",7500,"Z_4_23_Pro_R",1458,3,1
2,103,"CMFT_Cond2",2013-01-09 13:56:18,16,176,"Fix",4500,"D8_13_Profile_R",2398,3,1
2,103,"CMFT_Cond2",2013-01-09 13:56:18,16,180.5,"TestSlide",4500,"D8_13_Profile_R",2398,3,1
2,103,"CMFT_Cond2",2013-01-09 13:56:18,17,185,"Fix",1500,"M_7_Front_Bot",1392,3,1
2,103,"CMFT_Cond2",2013-01-09 13:56:18,17,186.5,"TestSlide",1500,"M_7_Front_Bot",1392,3,1
2,103,"CMFT_Cond2",2013-01-09 13:56:18,18,191,"Fix",7500,"B4_23_pro_ri",2631,3,1
2,103,"CMFT_Cond2",2013-01-09 13:56:18,18,198.5,"TestSlide",7500,"B4_23_pro_ri",2631,3,1
2,103,"CMFT_Cond2",2013-01-09 13:56:18,19,203,"Fix",6000,"D6_23_Profile_L",2657,2,1
2,103,"CMFT_Cond2",2013-01-09 13:56:18,19,209,"TestSlide",6000,"D6_23_Profile_L",2657,2,1
2,103,"CMFT_Cond2",2013-01-09 13:56:18,20,213.5,"Fix",4500,"N_5_Front_Half",1488,4,1
2,103,"CMFT_Cond2",2013-01-09 13:56:18,20,218,"TestSlide",4500,"N_5_Front_Half",1488,4,1
2,103,"CMFT_Cond2",2013-01-09 13:56:18,21,222.5,"Fix",7500,"B6_23_pro_L",1832,2,1
2,103,"CMFT_Cond2",2013-01-09 13:56:18,21,230,"TestSlide",7500,"B6_23_pro_L",1832,2,1
2,103,"CMFT_Cond2",2013-01-09 13:56:18,22,234.5,"Fix",7500,"Z_8_13_Pro_R_dark",2628,3,1
2,103,"CMFT_Cond2",2013-01-09 13:56:18,22,242,"TestSlide",7500,"Z_8_13_Pro_R_dark",2628,3,1
2,103,"CMFT_Cond2",2013-01-09 13:56:18,23,246.5,"Fix",3000,"J_4_23_R_Pro",849,3,1
2,103,"CMFT_Cond2",2013-01-09 13:56:18,23,249.5,"TestSlide",3000,"J_4_23_R_Pro",849,3,1
2,103,"CMFT_Cond2",2013-01-09 13:56:18,24,254,"Fix",7500,"B8_13_pro_R_HS",2041,2,1
2,103,"CMFT_Cond2",2013-01-09 13:56:18,24,261.5,"TestSlide",7500,"B8_13_pro_R_HS",2041,2,1
2,103,"CMFT_Cond2",2013-01-09 13:56:18,25,266,"Fix",1500,"M_4_23_R_Pro",3339,4,1
2,103,"CMFT_Cond2",2013-01-09 13:56:18,25,267.5,"TestSlide",1500,"M_4_23_R_Pro",3339,4,1
2,103,"CMFT_Cond2",2013-01-09 13:56:18,26,272,"Fix",7500,"J_8_13_r_pro_dark",1765,2,1
2,103,"CMFT_Cond2",2013-01-09 13:56:18,26,279.5,"TestSlide",7500,"J_8_13_r_pro_dark",1765,2,1
2,103,"CMFT_Cond2",2013-01-09 13:56:18,27,284,"Fix",7500,"Z_7_Front_Bot",1913,3,1
2,103,"CMFT_Cond2",2013-01-09 13:56:18,27,291.5,"TestSlide",7500,"Z_7_Front_Bot",1913,3,1
2,103,"CMFT_Cond2",2013-01-09 13:56:18,28,296,"Fix",7500,"D4_23_profile_R",1855,2,1
2,103,"CMFT_Cond2",2013-01-09 13:56:18,28,303.5,"TestSlide",7500,"D4_23_profile_R",1855,2,1
2,103,"CMFT_Cond2",2013-01-09 13:56:18,29,308,"Fix",4500,"N_6_23_L_Pro",1712,2,1
2,103,"CMFT_Cond2",2013-01-09 13:56:18,29,312.5,"TestSlide",4500,"N_6_23_L_Pro",1712,2,1
2,103,"CMFT_Cond2",2013-01-09 13:56:18,30,317,"Fix",3000,"B5_halflit_frontal",2120,4,1
2,103,"CMFT_Cond2",2013-01-09 13:56:18,30,320,"TestSlide",3000,"B5_halflit_frontal",2120,4,1
1,104,"AUS_CMFT_Cond2",2011-05-04 17:34:02,1,29,"Fix",1500,"NovelHLFA040_T1",2646,2,1
1,104,"AUS_CMFT_Cond2",2011-05-04 17:34:02,1,30.5,"TestSlide",1500,"NovelHLFA040_T1",2646,2,1
1,104,"AUS_CMFT_Cond2",2011-05-04 17:34:02,2,35,"Fix",7500,"Novel30RHSA049_T3",2053,4,1
1,104,"AUS_CMFT_Cond2",2011-05-04 17:34:02,2,42.5,"TestSlide",7500,"Novel30RHSA049_T3",2053,4,1
1,104,"AUS_CMFT_Cond2",2011-05-04 17:34:02,3,47,"Fix",1500,"Novel60LA076_T1",2913,2,1
1,104,"AUS_CMFT_Cond2",2011-05-04 17:34:02,3,48.5,"TestSlide",1500,"Novel60LA076_T1",2913,2,1
1,104,"AUS_CMFT_Cond2",2011-05-04 17:34:02,4,53,"Fix",1500,"NovelHLFA011_T3",1866,4,1
1,104,"AUS_CMFT_Cond2",2011-05-04 17:34:02,4,54.5,"TestSlide",1500,"NovelHLFA011_T3",1866,4,1
1,104,"AUS_CMFT_Cond2",2011-05-04 17:34:02,5,59,"Fix",7500,"NovelFBLA004_T3",2023,4,1
1,104,"AUS_CMFT_Cond2",2011-05-04 17:34:02,5,66.5,"TestSlide",7500,"NovelFBLA004_T3",2023,4,1
1,104,"AUS_CMFT_Cond2",2011-05-04 17:34:02,6,71,"Fix",3000,"Novel60LA022_T2",4152,3,1
1,104,"AUS_CMFT_Cond2",2011-05-04 17:34:02,6,74,"TestSlide",3000,"Novel60LA022_T2",4152,3,1
1,104,"AUS_CMFT_Cond2",2011-05-04 17:34:02,7,78.5,"Fix",7500,"NovelFBLA011_T1",3823,2,1
1,104,"AUS_CMFT_Cond2",2011-05-04 17:34:02,7,86,"TestSlide",7500,"NovelFBLA011_T1",3823,2,1
1,104,"AUS_CMFT_Cond2",2011-05-04 17:34:02,8,90.5,"Fix",7500,"NovelHLFA076_T3",1423,4,1
1,104,"AUS_CMFT_Cond2",2011-05-04 17:34:02,8,98,"TestSlide",7500,"NovelHLFA076_T3",1423,4,1
1,104,"AUS_CMFT_Cond2",2011-05-04 17:34:02,9,102.5,"Fix",1500,"Novel60LA040_T2",2841,3,1
1,104,"AUS_CMFT_Cond2",2011-05-04 17:34:02,9,104,"TestSlide",1500,"Novel60LA040_T2",2841,3,1
1,104,"AUS_CMFT_Cond2",2011-05-04 17:34:02,10,108.5,"Fix",7500,"NovelFBLA022_T3",1785,4,1
1,104,"AUS_CMFT_Cond2",2011-05-04 17:34:02,10,116,"TestSlide",7500,"NovelFBLA022_T3",1785,4,1
1,104,"AUS_CMFT_Cond2",2011-05-04 17:34:02,11,120.5,"Fix",3000,"Novel60RA049_T2",2943,3,1
1,104,"AUS_CMFT_Cond2",2011-05-04 17:34:02,11,123.5,"TestSlide",3000,"Novel60RA049_T2",2943,3,1
1,104,"AUS_CMFT_Cond2",2011-05-04 17:34:02,12,128,"Fix",7500,"Novel30RHSA040_T3",2903,4,0
1,104,"AUS_CMFT_Cond2",2011-05-04 17:34:02,12,135.5,"TestSlide",7500,"Novel30RHSA040_T3",2903,4,0
1,104,"AUS_CMFT_Cond2",2011-05-04 17:34:02,13,140,"Fix",7500,"NovelHLFA022_T3",2043,4,1
1,104,"AUS_CMFT_Cond2",2011-05-04 17:34:02,13,147.5,"TestSlide",7500,"NovelHLFA022_T3",2043,4,1
1,104,"AUS_CMFT_Cond2",2011-05-04 17:34:02,14,152,"Fix",4500,"NovelFBLA049_T2",2741,3,1
1,104,"AUS_CMFT_Cond2",2011-05-04 17:34:02,14,156.5,"TestSlide",4500,"NovelFBLA049_T2",2741,3,1
1,104,"AUS_CMFT_Cond2",2011-05-04 17:34:02,15,161,"Fix",4500,"Novel60RA076_T2",2789,3,1
1,104,"AUS_CMFT_Cond2",2011-05-04 17:34:02,15,165.5,"TestSlide",4500,"Novel60RA076_T2",2789,3,1
1,104,"AUS_CMFT_Cond2",2011-05-04 17:34:02,16,170,"Fix",7500,"Novel30RHSA011_T2",4082,3,1
1,104,"AUS_CMFT_Cond2",2011-05-04 17:34:02,16,177.5,"TestSlide",7500,"Novel30RHSA011_T2",4082,3,1
1,104,"AUS_CMFT_Cond2",2011-05-04 17:34:02,17,182,"Fix",7500,"NovelFBLA040_T2",2849,3,1
1,104,"AUS_CMFT_Cond2",2011-05-04 17:34:02,17,189.5,"TestSlide",7500,"NovelFBLA040_T2",2849,3,1
1,104,"AUS_CMFT_Cond2",2011-05-04 17:34:02,18,194,"Fix",7500,"Novel60RA004_T2",2495,3,1
1,104,"AUS_CMFT_Cond2",2011-05-04 17:34:02,18,201.5,"TestSlide",7500,"Novel60RA004_T2",2495,3,1
1,104,"AUS_CMFT_Cond2",2011-05-04 17:34:02,19,206,"Fix",3000,"Novel60LA011_T3",4421,4,1
1,104,"AUS_CMFT_Cond2",2011-05-04 17:34:02,19,209,"TestSlide",3000,"Novel60LA011_T3",4421,4,1
1,104,"AUS_CMFT_Cond2",2011-05-04 17:34:02,20,213.5,"Fix",7500,"NovelHLFA049_T3",1811,4,1
1,104,"AUS_CMFT_Cond2",2011-05-04 17:34:02,20,221,"TestSlide",7500,"NovelHLFA049_T3",1811,4,1
1,104,"AUS_CMFT_Cond2",2011-05-04 17:34:02,21,225.5,"Fix",7500,"Novel60LA004_T1",2804,2,1
1,104,"AUS_CMFT_Cond2",2011-05-04 17:34:02,21,233,"TestSlide",7500,"Novel60LA004_T1",2804,2,1
1,104,"AUS_CMFT_Cond2",2011-05-04 17:34:02,22,237.5,"Fix",7500,"Novel30RHSA076_T2",2873,3,1
1,104,"AUS_CMFT_Cond2",2011-05-04 17:34:02,22,245,"TestSlide",7500,"Novel30RHSA076_T2",2873,3,1
1,104,"AUS_CMFT_Cond2",2011-05-04 17:34:02,23,249.5,"Fix",4500,"Novel60RA022_T2",3954,3,0
1,104,"AUS_CMFT_Cond2",2011-05-04 17:34:02,23,254,"TestSlide",4500,"Novel60RA022_T2",3954,3,0
1,104,"AUS_CMFT_Cond2",2011-05-04 17:34:02,24,258.5,"Fix",7500,"Novel30RHSA004_T3",3802,4,1
1,104,"AUS_CMFT_Cond2",2011-05-04 17:34:02,24,266,"TestSlide",7500,"Novel30RHSA004_T3",3802,4,1
1,104,"AUS_CMFT_Cond2",2011-05-04 17:34:02,25,270.5,"Fix",1500,"Novel60RA040_T3",NA,4,0
1,104,"AUS_CMFT_Cond2",2011-05-04 17:34:02,25,272,"TestSlide",1500,"Novel60RA040_T3",NA,4,0
1,104,"AUS_CMFT_Cond2",2011-05-04 17:34:02,26,276.5,"Fix",7500,"Novel30RHSA022_T1",3869,2,1
1,104,"AUS_CMFT_Cond2",2011-05-04 17:34:02,26,284,"TestSlide",7500,"Novel30RHSA022_T1",3869,2,1
1,104,"AUS_CMFT_Cond2",2011-05-04 17:34:02,27,288.5,"Fix",7500,"NovelFBLA076_T2",3073,3,1
1,104,"AUS_CMFT_Cond2",2011-05-04 17:34:02,27,296,"TestSlide",7500,"NovelFBLA076_T2",3073,3,1
1,104,"AUS_CMFT_Cond2",2011-05-04 17:34:02,28,300.5,"Fix",1500,"Novel60RA011_T1",2896,2,0
1,104,"AUS_CMFT_Cond2",2011-05-04 17:34:02,28,302,"TestSlide",1500,"Novel60RA011_T1",2896,2,0
1,104,"AUS_CMFT_Cond2",2011-05-04 17:34:02,29,306.5,"Fix",3000,"Novel60LA049_T1",3370,2,1
1,104,"AUS_CMFT_Cond2",2011-05-04 17:34:02,29,309.5,"TestSlide",3000,"Novel60LA049_T1",3370,2,1
1,104,"AUS_CMFT_Cond2",2011-05-04 17:34:02,30,314,"Fix",4500,"NovelHLFA004_T3",2816,4,1
1,104,"AUS_CMFT_Cond2",2011-05-04 17:34:02,30,318.5,"TestSlide",4500,"NovelHLFA004_T3",2816,4,1
1,104,"Cars_Cond2",2011-05-04 17:10:09,1,29,"Fix",3000,"5_CI_Side1_Cond2_2_resize",2767,3,1
1,104,"Cars_Cond2",2011-05-04 17:10:09,1,32,"TestSlide",3000,"5_CI_Side1_Cond2_2_resize",2767,3,1
1,104,"Cars_Cond2",2011-05-04 17:10:09,2,36.5,"Fix",3000,"1_ARL_Back_Cond2_3",NA,4,0
1,104,"Cars_Cond2",2011-05-04 17:10:09,2,39.5,"TestSlide",3000,"1_ARL_Back_Cond2_3",NA,4,0
1,104,"Cars_Cond2",2011-05-04 17:10:09,3,44,"Fix",1500,"6_TC_Side1_Cond2_2",4375,3,1
1,104,"Cars_Cond2",2011-05-04 17:10:09,3,45.5,"TestSlide",1500,"6_TC_Side1_Cond2_2",4375,3,1
1,104,"Cars_Cond2",2011-05-04 17:10:09,4,50,"Fix",6000,"2_HC_Front1_Cond2_2",3976,3,1
1,104,"Cars_Cond2",2011-05-04 17:10:09,4,56,"TestSlide",6000,"2_HC_Front1_Cond2_2",3976,3,1
1,104,"Cars_Cond2",2011-05-04 17:10:09,5,60.5,"Fix",4500,"5_CI_Front1_Cond2_1",4203,2,1
1,104,"Cars_Cond2",2011-05-04 17:10:09,5,65,"TestSlide",4500,"5_CI_Front1_Cond2_1",4203,2,1
1,104,"Cars_Cond2",2011-05-04 17:10:09,6,69.5,"Fix",7500,"3_FT_Back_Cond2_3",4485,4,1
1,104,"Cars_Cond2",2011-05-04 17:10:09,6,77,"TestSlide",7500,"3_FT_Back_Cond2_3",4485,4,1
1,104,"Cars_Cond2",2011-05-04 17:10:09,7,81.5,"Fix",3000,"4_KS_Side1_Cond2_3",NA,4,0
1,104,"Cars_Cond2",2011-05-04 17:10:09,7,84.5,"TestSlide",3000,"4_KS_Side1_Cond2_3",NA,4,0
1,104,"Cars_Cond2",2011-05-04 17:10:09,8,89,"Fix",7500,"6_TC_Side2_Cond2_1",2799,2,1
1,104,"Cars_Cond2",2011-05-04 17:10:09,8,96.5,"TestSlide",7500,"6_TC_Side2_Cond2_1",2799,2,1
1,104,"Cars_Cond2",2011-05-04 17:10:09,9,101,"Fix",7500,"1_ARL_Front1_Cond2_3",3164,4,1
1,104,"Cars_Cond2",2011-05-04 17:10:09,9,108.5,"TestSlide",7500,"1_ARL_Front1_Cond2_3",3164,4,1
1,104,"Cars_Cond2",2011-05-04 17:10:09,10,113,"Fix",6000,"2_HC_Front2_Cond2_2",NA,3,0
1,104,"Cars_Cond2",2011-05-04 17:10:09,10,119,"TestSlide",6000,"2_HC_Front2_Cond2_2",NA,3,0
1,104,"Cars_Cond2",2011-05-04 17:10:09,11,123.5,"Fix",1500,"4_KS_Back_Cond2_1",NA,2,0
1,104,"Cars_Cond2",2011-05-04 17:10:09,11,125,"TestSlide",1500,"4_KS_Back_Cond2_1",NA,2,0
1,104,"Cars_Cond2",2011-05-04 17:10:09,12,129.5,"Fix",6000,"3_FT_Side1_Cond2_2",3807,3,1
1,104,"Cars_Cond2",2011-05-04 17:10:09,12,135.5,"TestSlide",6000,"3_FT_Side1_Cond2_2",3807,3,1
1,104,"Cars_Cond2",2011-05-04 17:10:09,13,140,"Fix",3000,"5_CI_Back_Cond2_2",4202,3,1
1,104,"Cars_Cond2",2011-05-04 17:10:09,13,143,"TestSlide",3000,"5_CI_Back_Cond2_2",4202,3,1
1,104,"Cars_Cond2",2011-05-04 17:10:09,14,147.5,"Fix",7500,"1_ARL_Side1_Cond2_2",3574,3,0
1,104,"Cars_Cond2",2011-05-04 17:10:09,14,155,"TestSlide",7500,"1_ARL_Side1_Cond2_2",3574,3,0
1,104,"Cars_Cond2",2011-05-04 17:10:09,15,159.5,"Fix",7500,"6_TC_Front1_Cond2_3",3036,4,1
1,104,"Cars_Cond2",2011-05-04 17:10:09,15,167,"TestSlide",7500,"6_TC_Front1_Cond2_3",3036,4,1
1,104,"Cars_Cond2",2011-05-04 17:10:09,16,171.5,"Fix",3000,"2_HC_Side1_Cond2_1",3525,2,1
1,104,"Cars_Cond2",2011-05-04 17:10:09,16,174.5,"TestSlide",3000,"2_HC_Side1_Cond2_1",3525,2,1
1,104,"Cars_Cond2",2011-05-04 17:10:09,17,179,"Fix",3000,"4_KS_Front1_Cond2_3",3907,4,1
1,104,"Cars_Cond2",2011-05-04 17:10:09,17,182,"TestSlide",3000,"4_KS_Front1_Cond2_3",3907,4,1
1,104,"Cars_Cond2",2011-05-04 17:10:09,18,186.5,"Fix",3000,"5_CI_Front2_Cond2_1",2829,2,1
1,104,"Cars_Cond2",2011-05-04 17:10:09,18,189.5,"TestSlide",3000,"5_CI_Front2_Cond2_1",2829,2,1
1,104,"Cars_Cond2",2011-05-04 17:10:09,19,194,"Fix",7500,"3_FT_Front1_Cond2_1",3463,2,0
1,104,"Cars_Cond2",2011-05-04 17:10:09,19,201.5,"TestSlide",7500,"3_FT_Front1_Cond2_1",3463,2,0
1,104,"Cars_Cond2",2011-05-04 17:10:09,20,206,"Fix",4500,"1_ARL_Side2_Cond2_2",3412,3,1
1,104,"Cars_Cond2",2011-05-04 17:10:09,20,210.5,"TestSlide",4500,"1_ARL_Side2_Cond2_2",3412,3,1
1,104,"Cars_Cond2",2011-05-04 17:10:09,21,215,"Fix",1500,"4_KS_Side2_Cond2_1",3111,2,0
1,104,"Cars_Cond2",2011-05-04 17:10:09,21,216.5,"TestSlide",1500,"4_KS_Side2_Cond2_1",3111,2,0
1,104,"Cars_Cond2",2011-05-04 17:10:09,22,221,"Fix",3000,"6_TC_Front2_Cond2_3",3149,4,1
1,104,"Cars_Cond2",2011-05-04 17:10:09,22,224,"TestSlide",3000,"6_TC_Front2_Cond2_3",3149,4,1
1,104,"Cars_Cond2",2011-05-04 17:10:09,23,228.5,"Fix",7500,"2_HC_Side2_Cond2_3",3301,4,1
1,104,"Cars_Cond2",2011-05-04 17:10:09,23,236,"TestSlide",7500,"2_HC_Side2_Cond2_3",3301,4,1
1,104,"Cars_Cond2",2011-05-04 17:10:09,24,240.5,"Fix",7500,"3_FT_Front2_Cond2_1",2974,2,0
1,104,"Cars_Cond2",2011-05-04 17:10:09,24,248,"TestSlide",7500,"3_FT_Front2_Cond2_1",2974,2,0
1,104,"Cars_Cond2",2011-05-04 17:10:09,25,252.5,"Fix",6000,"6_TC_Back_Cond2_3",2552,4,1
1,104,"Cars_Cond2",2011-05-04 17:10:09,25,258.5,"TestSlide",6000,"6_TC_Back_Cond2_3",2552,4,1
1,104,"Cars_Cond2",2011-05-04 17:10:09,26,263,"Fix",4500,"1_ARL_Front2_Cond2_2",3054,3,1
1,104,"Cars_Cond2",2011-05-04 17:10:09,26,267.5,"TestSlide",4500,"1_ARL_Front2_Cond2_2",3054,3,1
1,104,"Cars_Cond2",2011-05-04 17:10:09,27,272,"Fix",7500,"5_CI_Side2_Cond2_2",2885,3,1
1,104,"Cars_Cond2",2011-05-04 17:10:09,27,279.5,"TestSlide",7500,"5_CI_Side2_Cond2_2",2885,3,1
1,104,"Cars_Cond2",2011-05-04 17:10:09,28,284,"Fix",7500,"4_KS_Front2_Cond2_2",4384,3,1
1,104,"Cars_Cond2",2011-05-04 17:10:09,28,291.5,"TestSlide",7500,"4_KS_Front2_Cond2_2",4384,3,1
1,104,"Cars_Cond2",2011-05-04 17:10:09,29,296,"Fix",7500,"3_FT_Side2_Cond2_3",2826,4,0
1,104,"Cars_Cond2",2011-05-04 17:10:09,29,303.5,"TestSlide",7500,"3_FT_Side2_Cond2_3",2826,4,0
1,104,"Cars_Cond2",2011-05-04 17:10:09,30,308,"Fix",7500,"2_HC_Back_Cond2_2",3687,3,0
1,104,"Cars_Cond2",2011-05-04 17:10:09,30,315.5,"TestSlide",7500,"2_HC_Back_Cond2_2",3687,3,0
1,104,"CMFT_Cond2",2011-05-04 17:22:14,1,29,"Fix",1500,"M_5_Front_Halflit",1641,2,1
1,104,"CMFT_Cond2",2011-05-04 17:22:14,1,30.5,"TestSlide",1500,"M_5_Front_Halflit",1641,2,1
1,104,"CMFT_Cond2",2011-05-04 17:22:14,2,35,"Fix",6000,"N_8_13_R_Pro_dark",3987,3,1
1,104,"CMFT_Cond2",2011-05-04 17:22:14,2,41,"TestSlide",6000,"N_8_13_R_Pro_dark",3987,3,1
1,104,"CMFT_Cond2",2011-05-04 17:22:14,3,45.5,"Fix",1500,"Z_6_23_Pro_L",3702,2,0
1,104,"CMFT_Cond2",2011-05-04 17:22:14,3,47,"TestSlide",1500,"Z_6_23_Pro_L",3702,2,0
1,104,"CMFT_Cond2",2011-05-04 17:22:14,4,51.5,"Fix",7500,"D5_Halflit_Frontal",2071,4,1
1,104,"CMFT_Cond2",2011-05-04 17:22:14,4,59,"TestSlide",7500,"D5_Halflit_Frontal",2071,4,1
1,104,"CMFT_Cond2",2011-05-04 17:22:14,5,63.5,"Fix",7500,"B7_Bottomlit_Frontal",2258,4,1
1,104,"CMFT_Cond2",2011-05-04 17:22:14,5,71,"TestSlide",7500,"B7_Bottomlit_Frontal",2258,4,1
1,104,"CMFT_Cond2",2011-05-04 17:22:14,6,75.5,"Fix",7500,"J_6_23_L_Pro",1586,3,1
1,104,"CMFT_Cond2",2011-05-04 17:22:14,6,83,"TestSlide",7500,"J_6_23_L_Pro",1586,3,1
1,104,"CMFT_Cond2",2011-05-04 17:22:14,7,87.5,"Fix",7500,"D7_Bottomlit_Frontal",2273,2,1
1,104,"CMFT_Cond2",2011-05-04 17:22:14,7,95,"TestSlide",7500,"D7_Bottomlit_Frontal",2273,2,1
1,104,"CMFT_Cond2",2011-05-04 17:22:14,8,99.5,"Fix",1500,"Z_5_Front_Half",1657,4,1
1,104,"CMFT_Cond2",2011-05-04 17:22:14,8,101,"TestSlide",1500,"Z_5_Front_Half",1657,4,1
1,104,"CMFT_Cond2",2011-05-04 17:22:14,9,105.5,"Fix",7500,"M_6_23_L_Pro",2018,3,1
1,104,"CMFT_Cond2",2011-05-04 17:22:14,9,113,"TestSlide",7500,"M_6_23_L_Pro",2018,3,1
1,104,"CMFT_Cond2",2011-05-04 17:22:14,10,117.5,"Fix",4500,"J_7_Bottom_Lit",1154,4,1
1,104,"CMFT_Cond2",2011-05-04 17:22:14,10,122,"TestSlide",4500,"J_7_Bottom_Lit",1154,4,1
1,104,"CMFT_Cond2",2011-05-04 17:22:14,11,126.5,"Fix",7500,"N_4_23_R_Pro",2056,3,1
1,104,"CMFT_Cond2",2011-05-04 17:22:14,11,134,"TestSlide",7500,"N_4_23_R_Pro",2056,3,1
1,104,"CMFT_Cond2",2011-05-04 17:22:14,12,138.5,"Fix",6000,"M_8_13_R_Pro_dark",2574,4,1
1,104,"CMFT_Cond2",2011-05-04 17:22:14,12,144.5,"TestSlide",6000,"M_8_13_R_Pro_dark",2574,4,1
1,104,"CMFT_Cond2",2011-05-04 17:22:14,13,149,"Fix",1500,"J_5_Front_Halflit",969,3,1
1,104,"CMFT_Cond2",2011-05-04 17:22:14,13,150.5,"TestSlide",1500,"J_5_Front_Halflit",969,3,1
1,104,"CMFT_Cond2",2011-05-04 17:22:14,14,155,"Fix",4500,"N_7_Front_Bot",2293,2,1
1,104,"CMFT_Cond2",2011-05-04 17:22:14,14,159.5,"TestSlide",4500,"N_7_Front_Bot",2293,2,1
1,104,"CMFT_Cond2",2011-05-04 17:22:14,15,164,"Fix",7500,"Z_4_23_Pro_R",1658,3,1
1,104,"CMFT_Cond2",2011-05-04 17:22:14,15,171.5,"TestSlide",7500,"Z_4_23_Pro_R",1658,3,1
1,104,"CMFT_Cond2",2011-05-04 17:22:14,16,176,"Fix",4500,"D8_13_Profile_R",2928,3,0
1,104,"CMFT_Cond2",2011-05-04 17:22:14,16,180.5,"TestSlide",4500,"D8_13_Profile_R",2928,3,0
1,104,"CMFT_Cond2",2011-05-04 17:22:14,17,185,"Fix",1500,"M_7_Front_Bot",1229,3,1
1,104,"CMFT_Cond2",2011-05-04 17:22:14,17,186.5,"TestSlide",1500,"M_7_Front_Bot",1229,3,1
1,104,"CMFT_Cond2",2011-05-04 17:22:14,18,191,"Fix",7500,"B4_23_pro_ri",1780,3,1
1,104,"CMFT_Cond2",2011-05-04 17:22:14,18,198.5,"TestSlide",7500,"B4_23_pro_ri",1780,3,1
1,104,"CMFT_Cond2",2011-05-04 17:22:14,19,203,"Fix",6000,"D6_23_Profile_L",2667,2,0
1,104,"CMFT_Cond2",2011-05-04 17:22:14,19,209,"TestSlide",6000,"D6_23_Profile_L",2667,2,0
1,104,"CMFT_Cond2",2011-05-04 17:22:14,20,213.5,"Fix",4500,"N_5_Front_Half",1405,4,1
1,104,"CMFT_Cond2",2011-05-04 17:22:14,20,218,"TestSlide",4500,"N_5_Front_Half",1405,4,1
1,104,"CMFT_Cond2",2011-05-04 17:22:14,21,222.5,"Fix",7500,"B6_23_pro_L",2463,2,1
1,104,"CMFT_Cond2",2011-05-04 17:22:14,21,230,"TestSlide",7500,"B6_23_pro_L",2463,2,1
1,104,"CMFT_Cond2",2011-05-04 17:22:14,22,234.5,"Fix",7500,"Z_8_13_Pro_R_dark",1707,3,1
1,104,"CMFT_Cond2",2011-05-04 17:22:14,22,242,"TestSlide",7500,"Z_8_13_Pro_R_dark",1707,3,1
1,104,"CMFT_Cond2",2011-05-04 17:22:14,23,246.5,"Fix",3000,"J_4_23_R_Pro",1501,3,1
1,104,"CMFT_Cond2",2011-05-04 17:22:14,23,249.5,"TestSlide",3000,"J_4_23_R_Pro",1501,3,1
1,104,"CMFT_Cond2",2011-05-04 17:22:14,24,254,"Fix",7500,"B8_13_pro_R_HS",1706,2,1
1,104,"CMFT_Cond2",2011-05-04 17:22:14,24,261.5,"TestSlide",7500,"B8_13_pro_R_HS",1706,2,1
1,104,"CMFT_Cond2",2011-05-04 17:22:14,25,266,"Fix",1500,"M_4_23_R_Pro",4212,4,1
1,104,"CMFT_Cond2",2011-05-04 17:22:14,25,267.5,"TestSlide",1500,"M_4_23_R_Pro",4212,4,1
1,104,"CMFT_Cond2",2011-05-04 17:22:14,26,272,"Fix",7500,"J_8_13_r_pro_dark",1773,2,1
1,104,"CMFT_Cond2",2011-05-04 17:22:14,26,279.5,"TestSlide",7500,"J_8_13_r_pro_dark",1773,2,1
1,104,"CMFT_Cond2",2011-05-04 17:22:14,27,284,"Fix",7500,"Z_7_Front_Bot",2099,3,0
1,104,"CMFT_Cond2",2011-05-04 17:22:14,27,291.5,"TestSlide",7500,"Z_7_Front_Bot",2099,3,0
1,104,"CMFT_Cond2",2011-05-04 17:22:14,28,296,"Fix",7500,"D4_23_profile_R",3341,2,1
1,104,"CMFT_Cond2",2011-05-04 17:22:14,28,303.5,"TestSlide",7500,"D4_23_profile_R",3341,2,1
1,104,"CMFT_Cond2",2011-05-04 17:22:14,29,308,"Fix",4500,"N_6_23_L_Pro",2094,2,1
1,104,"CMFT_Cond2",2011-05-04 17:22:14,29,312.5,"TestSlide",4500,"N_6_23_L_Pro",2094,2,1
1,104,"CMFT_Cond2",2011-05-04 17:22:14,30,317,"Fix",3000,"B5_halflit_frontal",1557,4,1
1,104,"CMFT_Cond2",2011-05-04 17:22:14,30,320,"TestSlide",3000,"B5_halflit_frontal",1557,4,1
1,105,"AUS_CMFT_Cond2",2011-06-29 17:23:29,1,29,"Fix",1500,"NovelHLFA040_T1",2875,2,1
1,105,"AUS_CMFT_Cond2",2011-06-29 17:23:29,1,30.5,"TestSlide",1500,"NovelHLFA040_T1",2875,2,1
1,105,"AUS_CMFT_Cond2",2011-06-29 17:23:29,2,35,"Fix",7500,"Novel30RHSA049_T3",NA,4,0
1,105,"AUS_CMFT_Cond2",2011-06-29 17:23:29,2,42.5,"TestSlide",7500,"Novel30RHSA049_T3",NA,4,0
1,105,"AUS_CMFT_Cond2",2011-06-29 17:23:29,3,47,"Fix",1500,"Novel60LA076_T1",3254,2,0
1,105,"AUS_CMFT_Cond2",2011-06-29 17:23:29,3,48.5,"TestSlide",1500,"Novel60LA076_T1",3254,2,0
1,105,"AUS_CMFT_Cond2",2011-06-29 17:23:29,4,53,"Fix",1500,"NovelHLFA011_T3",3303,4,1
1,105,"AUS_CMFT_Cond2",2011-06-29 17:23:29,4,54.5,"TestSlide",1500,"NovelHLFA011_T3",3303,4,1
1,105,"AUS_CMFT_Cond2",2011-06-29 17:23:29,5,59,"Fix",7500,"NovelFBLA004_T3",3466,4,1
1,105,"AUS_CMFT_Cond2",2011-06-29 17:23:29,5,66.5,"TestSlide",7500,"NovelFBLA004_T3",3466,4,1
1,105,"AUS_CMFT_Cond2",2011-06-29 17:23:29,6,71,"Fix",3000,"Novel60LA022_T2",3368,3,0
1,105,"AUS_CMFT_Cond2",2011-06-29 17:23:29,6,74,"TestSlide",3000,"Novel60LA022_T2",3368,3,0
1,105,"AUS_CMFT_Cond2",2011-06-29 17:23:29,7,78.5,"Fix",7500,"NovelFBLA011_T1",3153,2,1
1,105,"AUS_CMFT_Cond2",2011-06-29 17:23:29,7,86,"TestSlide",7500,"NovelFBLA011_T1",3153,2,1
1,105,"AUS_CMFT_Cond2",2011-06-29 17:23:29,8,90.5,"Fix",7500,"NovelHLFA076_T3",2859,4,1
1,105,"AUS_CMFT_Cond2",2011-06-29 17:23:29,8,98,"TestSlide",7500,"NovelHLFA076_T3",2859,4,1
1,105,"AUS_CMFT_Cond2",2011-06-29 17:23:29,9,102.5,"Fix",1500,"Novel60LA040_T2",NA,3,0
1,105,"AUS_CMFT_Cond2",2011-06-29 17:23:29,9,104,"TestSlide",1500,"Novel60LA040_T2",NA,3,0
1,105,"AUS_CMFT_Cond2",2011-06-29 17:23:29,10,108.5,"Fix",7500,"NovelFBLA022_T3",2473,4,1
1,105,"AUS_CMFT_Cond2",2011-06-29 17:23:29,10,116,"TestSlide",7500,"NovelFBLA022_T3",2473,4,1
1,105,"AUS_CMFT_Cond2",2011-06-29 17:23:29,11,120.5,"Fix",3000,"Novel60RA049_T2",2939,3,0
1,105,"AUS_CMFT_Cond2",2011-06-29 17:23:29,11,123.5,"TestSlide",3000,"Novel60RA049_T2",2939,3,0
1,105,"AUS_CMFT_Cond2",2011-06-29 17:23:29,12,128,"Fix",7500,"Novel30RHSA040_T3",3022,4,1
1,105,"AUS_CMFT_Cond2",2011-06-29 17:23:29,12,135.5,"TestSlide",7500,"Novel30RHSA040_T3",3022,4,1
1,105,"AUS_CMFT_Cond2",2011-06-29 17:23:29,13,140,"Fix",7500,"NovelHLFA022_T3",3348,4,1
1,105,"AUS_CMFT_Cond2",2011-06-29 17:23:29,13,147.5,"TestSlide",7500,"NovelHLFA022_T3",3348,4,1
1,105,"AUS_CMFT_Cond2",2011-06-29 17:23:29,14,152,"Fix",4500,"NovelFBLA049_T2",3491,3,1
1,105,"AUS_CMFT_Cond2",2011-06-29 17:23:29,14,156.5,"TestSlide",4500,"NovelFBLA049_T2",3491,3,1
1,105,"AUS_CMFT_Cond2",2011-06-29 17:23:29,15,161,"Fix",4500,"Novel60RA076_T2",1967,3,0
1,105,"AUS_CMFT_Cond2",2011-06-29 17:23:29,15,165.5,"TestSlide",4500,"Novel60RA076_T2",1967,3,0
1,105,"AUS_CMFT_Cond2",2011-06-29 17:23:29,16,170,"Fix",7500,"Novel30RHSA011_T2",2500,3,0
1,105,"AUS_CMFT_Cond2",2011-06-29 17:23:29,16,177.5,"TestSlide",7500,"Novel30RHSA011_T2",2500,3,0
1,105,"AUS_CMFT_Cond2",2011-06-29 17:23:29,17,182,"Fix",7500,"NovelFBLA040_T2",2459,3,0
1,105,"AUS_CMFT_Cond2",2011-06-29 17:23:29,17,189.5,"TestSlide",7500,"NovelFBLA040_T2",2459,3,0
1,105,"AUS_CMFT_Cond2",2011-06-29 17:23:29,18,194,"Fix",7500,"Novel60RA004_T2",2257,3,0
1,105,"AUS_CMFT_Cond2",2011-06-29 17:23:29,18,201.5,"TestSlide",7500,"Novel60RA004_T2",2257,3,0
1,105,"AUS_CMFT_Cond2",2011-06-29 17:23:29,19,206,"Fix",3000,"Novel60LA011_T3",3167,4,0
1,105,"AUS_CMFT_Cond2",2011-06-29 17:23:29,19,209,"TestSlide",3000,"Novel60LA011_T3",3167,4,0
1,105,"AUS_CMFT_Cond2",2011-06-29 17:23:29,20,213.5,"Fix",7500,"NovelHLFA049_T3",2254,4,1
1,105,"AUS_CMFT_Cond2",2011-06-29 17:23:29,20,221,"TestSlide",7500,"NovelHLFA049_T3",2254,4,1
1,105,"AUS_CMFT_Cond2",2011-06-29 17:23:29,21,225.5,"Fix",7500,"Novel60LA004_T1",2074,2,0
1,105,"AUS_CMFT_Cond2",2011-06-29 17:23:29,21,233,"TestSlide",7500,"Novel60LA004_T1",2074,2,0
1,105,"AUS_CMFT_Cond2",2011-06-29 17:23:29,22,237.5,"Fix",7500,"Novel30RHSA076_T2",2157,3,0
1,105,"AUS_CMFT_Cond2",2011-06-29 17:23:29,22,245,"TestSlide",7500,"Novel30RHSA076_T2",2157,3,0
1,105,"AUS_CMFT_Cond2",2011-06-29 17:23:29,23,249.5,"Fix",4500,"Novel60RA022_T2",1730,3,0
1,105,"AUS_CMFT_Cond2",2011-06-29 17:23:29,23,254,"TestSlide",4500,"Novel60RA022_T2",1730,3,0
1,105,"AUS_CMFT_Cond2",2011-06-29 17:23:29,24,258.5,"Fix",7500,"Novel30RHSA004_T3",1574,4,0
1,105,"AUS_CMFT_Cond2",2011-06-29 17:23:29,24,266,"TestSlide",7500,"Novel30RHSA004_T3",1574,4,0
1,105,"AUS_CMFT_Cond2",2011-06-29 17:23:29,25,270.5,"Fix",1500,"Novel60RA040_T3",2003,4,1
1,105,"AUS_CMFT_Cond2",2011-06-29 17:23:29,25,272,"TestSlide",1500,"Novel60RA040_T3",2003,4,1
1,105,"AUS_CMFT_Cond2",2011-06-29 17:23:29,26,276.5,"Fix",7500,"Novel30RHSA022_T1",2439,2,1
1,105,"AUS_CMFT_Cond2",2011-06-29 17:23:29,26,284,"TestSlide",7500,"Novel30RHSA022_T1",2439,2,1
1,105,"AUS_CMFT_Cond2",2011-06-29 17:23:29,27,288.5,"Fix",7500,"NovelFBLA076_T2",3744,3,1
1,105,"AUS_CMFT_Cond2",2011-06-29 17:23:29,27,296,"TestSlide",7500,"NovelFBLA076_T2",3744,3,1
1,105,"AUS_CMFT_Cond2",2011-06-29 17:23:29,28,300.5,"Fix",1500,"Novel60RA011_T1",2391,2,0
1,105,"AUS_CMFT_Cond2",2011-06-29 17:23:29,28,302,"TestSlide",1500,"Novel60RA011_T1",2391,2,0
1,105,"AUS_CMFT_Cond2",2011-06-29 17:23:29,29,306.5,"Fix",3000,"Novel60LA049_T1",2118,2,0
1,105,"AUS_CMFT_Cond2",2011-06-29 17:23:29,29,309.5,"TestSlide",3000,"Novel60LA049_T1",2118,2,0
1,105,"AUS_CMFT_Cond2",2011-06-29 17:23:29,30,314,"Fix",4500,"NovelHLFA004_T3",3534,4,1
1,105,"AUS_CMFT_Cond2",2011-06-29 17:23:29,30,318.5,"TestSlide",4500,"NovelHLFA004_T3",3534,4,1
1,105,"Cars_Cond2",2011-06-29 17:35:15,1,29,"Fix",3000,"5_CI_Side1_Cond2_2_resize",2788,3,0
1,105,"Cars_Cond2",2011-06-29 17:35:15,1,32,"TestSlide",3000,"5_CI_Side1_Cond2_2_resize",2788,3,0
1,105,"Cars_Cond2",2011-06-29 17:35:15,2,36.5,"Fix",3000,"1_ARL_Back_Cond2_3",NA,4,0
1,105,"Cars_Cond2",2011-06-29 17:35:15,2,39.5,"TestSlide",3000,"1_ARL_Back_Cond2_3",NA,4,0
1,105,"Cars_Cond2",2011-06-29 17:35:15,3,44,"Fix",1500,"6_TC_Side1_Cond2_2",3286,3,0
1,105,"Cars_Cond2",2011-06-29 17:35:15,3,45.5,"TestSlide",1500,"6_TC_Side1_Cond2_2",3286,3,0
1,105,"Cars_Cond2",2011-06-29 17:35:15,4,50,"Fix",6000,"2_HC_Front1_Cond2_2",3234,3,1
1,105,"Cars_Cond2",2011-06-29 17:35:15,4,56,"TestSlide",6000,"2_HC_Front1_Cond2_2",3234,3,1
1,105,"Cars_Cond2",2011-06-29 17:35:15,5,60.5,"Fix",4500,"5_CI_Front1_Cond2_1",3607,2,0
1,105,"Cars_Cond2",2011-06-29 17:35:15,5,65,"TestSlide",4500,"5_CI_Front1_Cond2_1",3607,2,0
1,105,"Cars_Cond2",2011-06-29 17:35:15,6,69.5,"Fix",7500,"3_FT_Back_Cond2_3",2189,4,1
1,105,"Cars_Cond2",2011-06-29 17:35:15,6,77,"TestSlide",7500,"3_FT_Back_Cond2_3",2189,4,1
1,105,"Cars_Cond2",2011-06-29 17:35:15,7,81.5,"Fix",3000,"4_KS_Side1_Cond2_3",2323,4,1
1,105,"Cars_Cond2",2011-06-29 17:35:15,7,84.5,"TestSlide",3000,"4_KS_Side1_Cond2_3",2323,4,1
1,105,"Cars_Cond2",2011-06-29 17:35:15,8,89,"Fix",7500,"6_TC_Side2_Cond2_1",2109,2,0
1,105,"Cars_Cond2",2011-06-29 17:35:15,8,96.5,"TestSlide",7500,"6_TC_Side2_Cond2_1",2109,2,0
1,105,"Cars_Cond2",2011-06-29 17:35:15,9,101,"Fix",7500,"1_ARL_Front1_Cond2_3",4049,4,0
1,105,"Cars_Cond2",2011-06-29 17:35:15,9,108.5,"TestSlide",7500,"1_ARL_Front1_Cond2_3",4049,4,0
1,105,"Cars_Cond2",2011-06-29 17:35:15,10,113,"Fix",6000,"2_HC_Front2_Cond2_2",1972,3,0
1,105,"Cars_Cond2",2011-06-29 17:35:15,10,119,"TestSlide",6000,"2_HC_Front2_Cond2_2",1972,3,0
1,105,"Cars_Cond2",2011-06-29 17:35:15,11,123.5,"Fix",1500,"4_KS_Back_Cond2_1",3364,2,0
1,105,"Cars_Cond2",2011-06-29 17:35:15,11,125,"TestSlide",1500,"4_KS_Back_Cond2_1",3364,2,0
1,105,"Cars_Cond2",2011-06-29 17:35:15,12,129.5,"Fix",6000,"3_FT_Side1_Cond2_2",2214,3,1
1,105,"Cars_Cond2",2011-06-29 17:35:15,12,135.5,"TestSlide",6000,"3_FT_Side1_Cond2_2",2214,3,1
1,105,"Cars_Cond2",2011-06-29 17:35:15,13,140,"Fix",3000,"5_CI_Back_Cond2_2",3037,3,0
1,105,"Cars_Cond2",2011-06-29 17:35:15,13,143,"TestSlide",3000,"5_CI_Back_Cond2_2",3037,3,0
1,105,"Cars_Cond2",2011-06-29 17:35:15,14,147.5,"Fix",7500,"1_ARL_Side1_Cond2_2",3743,3,0
1,105,"Cars_Cond2",2011-06-29 17:35:15,14,155,"TestSlide",7500,"1_ARL_Side1_Cond2_2",3743,3,0
1,105,"Cars_Cond2",2011-06-29 17:35:15,15,159.5,"Fix",7500,"6_TC_Front1_Cond2_3",3177,4,1
1,105,"Cars_Cond2",2011-06-29 17:35:15,15,167,"TestSlide",7500,"6_TC_Front1_Cond2_3",3177,4,1
1,105,"Cars_Cond2",2011-06-29 17:35:15,16,171.5,"Fix",3000,"2_HC_Side1_Cond2_1",2379,2,0
1,105,"Cars_Cond2",2011-06-29 17:35:15,16,174.5,"TestSlide",3000,"2_HC_Side1_Cond2_1",2379,2,0
1,105,"Cars_Cond2",2011-06-29 17:35:15,17,179,"Fix",3000,"4_KS_Front1_Cond2_3",2342,4,1
1,105,"Cars_Cond2",2011-06-29 17:35:15,17,182,"TestSlide",3000,"4_KS_Front1_Cond2_3",2342,4,1
1,105,"Cars_Cond2",2011-06-29 17:35:15,18,186.5,"Fix",3000,"5_CI_Front2_Cond2_1",3459,2,0
1,105,"Cars_Cond2",2011-06-29 17:35:15,18,189.5,"TestSlide",3000,"5_CI_Front2_Cond2_1",3459,2,0
1,105,"Cars_Cond2",2011-06-29 17:35:15,19,194,"Fix",7500,"3_FT_Front1_Cond2_1",1996,2,0
1,105,"Cars_Cond2",2011-06-29 17:35:15,19,201.5,"TestSlide",7500,"3_FT_Front1_Cond2_1",1996,2,0
1,105,"Cars_Cond2",2011-06-29 17:35:15,20,206,"Fix",4500,"1_ARL_Side2_Cond2_2",2154,3,0
1,105,"Cars_Cond2",2011-06-29 17:35:15,20,210.5,"TestSlide",4500,"1_ARL_Side2_Cond2_2",2154,3,0
1,105,"Cars_Cond2",2011-06-29 17:35:15,21,215,"Fix",1500,"4_KS_Side2_Cond2_1",2516,2,0
1,105,"Cars_Cond2",2011-06-29 17:35:15,21,216.5,"TestSlide",1500,"4_KS_Side2_Cond2_1",2516,2,0
1,105,"Cars_Cond2",2011-06-29 17:35:15,22,221,"Fix",3000,"6_TC_Front2_Cond2_3",1975,4,1
1,105,"Cars_Cond2",2011-06-29 17:35:15,22,224,"TestSlide",3000,"6_TC_Front2_Cond2_3",1975,4,1
1,105,"Cars_Cond2",2011-06-29 17:35:15,23,228.5,"Fix",7500,"2_HC_Side2_Cond2_3",2016,4,0
1,105,"Cars_Cond2",2011-06-29 17:35:15,23,236,"TestSlide",7500,"2_HC_Side2_Cond2_3",2016,4,0
1,105,"Cars_Cond2",2011-06-29 17:35:15,24,240.5,"Fix",7500,"3_FT_Front2_Cond2_1",2685,2,0
1,105,"Cars_Cond2",2011-06-29 17:35:15,24,248,"TestSlide",7500,"3_FT_Front2_Cond2_1",2685,2,0
1,105,"Cars_Cond2",2011-06-29 17:35:15,25,252.5,"Fix",6000,"6_TC_Back_Cond2_3",3226,4,1
1,105,"Cars_Cond2",2011-06-29 17:35:15,25,258.5,"TestSlide",6000,"6_TC_Back_Cond2_3",3226,4,1
1,105,"Cars_Cond2",2011-06-29 17:35:15,26,263,"Fix",4500,"1_ARL_Front2_Cond2_2",4254,3,0
1,105,"Cars_Cond2",2011-06-29 17:35:15,26,267.5,"TestSlide",4500,"1_ARL_Front2_Cond2_2",4254,3,0
1,105,"Cars_Cond2",2011-06-29 17:35:15,27,272,"Fix",7500,"5_CI_Side2_Cond2_2",3072,3,1
1,105,"Cars_Cond2",2011-06-29 17:35:15,27,279.5,"TestSlide",7500,"5_CI_Side2_Cond2_2",3072,3,1
1,105,"Cars_Cond2",2011-06-29 17:35:15,28,284,"Fix",7500,"4_KS_Front2_Cond2_2",2684,3,1
1,105,"Cars_Cond2",2011-06-29 17:35:15,28,291.5,"TestSlide",7500,"4_KS_Front2_Cond2_2",2684,3,1
1,105,"Cars_Cond2",2011-06-29 17:35:15,29,296,"Fix",7500,"3_FT_Side2_Cond2_3",3434,4,0
1,105,"Cars_Cond2",2011-06-29 17:35:15,29,303.5,"TestSlide",7500,"3_FT_Side2_Cond2_3",3434,4,0
1,105,"Cars_Cond2",2011-06-29 17:35:15,30,308,"Fix",7500,"2_HC_Back_Cond2_2",2582,3,1
1,105,"Cars_Cond2",2011-06-29 17:35:15,30,315.5,"TestSlide",7500,"2_HC_Back_Cond2_2",2582,3,1
1,105,"CMFT_Cond2",2011-06-29 17:47:14,1,29,"Fix",1500,"M_5_Front_Halflit",2804,2,1
1,105,"CMFT_Cond2",2011-06-29 17:47:14,1,30.5,"TestSlide",1500,"M_5_Front_Halflit",2804,2,1
1,105,"CMFT_Cond2",2011-06-29 17:47:14,2,35,"Fix",6000,"N_8_13_R_Pro_dark",2767,3,0
1,105,"CMFT_Cond2",2011-06-29 17:47:14,2,41,"TestSlide",6000,"N_8_13_R_Pro_dark",2767,3,0
1,105,"CMFT_Cond2",2011-06-29 17:47:14,3,45.5,"Fix",1500,"Z_6_23_Pro_L",1709,2,1
1,105,"CMFT_Cond2",2011-06-29 17:47:14,3,47,"TestSlide",1500,"Z_6_23_Pro_L",1709,2,1
1,105,"CMFT_Cond2",2011-06-29 17:47:14,4,51.5,"Fix",7500,"D5_Halflit_Frontal",2256,4,0
1,105,"CMFT_Cond2",2011-06-29 17:47:14,4,59,"TestSlide",7500,"D5_Halflit_Frontal",2256,4,0
1,105,"CMFT_Cond2",2011-06-29 17:47:14,5,63.5,"Fix",7500,"B7_Bottomlit_Frontal",4024,4,0
1,105,"CMFT_Cond2",2011-06-29 17:47:14,5,71,"TestSlide",7500,"B7_Bottomlit_Frontal",4024,4,0
1,105,"CMFT_Cond2",2011-06-29 17:47:14,6,75.5,"Fix",7500,"J_6_23_L_Pro",3172,3,0
1,105,"CMFT_Cond2",2011-06-29 17:47:14,6,83,"TestSlide",7500,"J_6_23_L_Pro",3172,3,0
1,105,"CMFT_Cond2",2011-06-29 17:47:14,7,87.5,"Fix",7500,"D7_Bottomlit_Frontal",3626,2,1
1,105,"CMFT_Cond2",2011-06-29 17:47:14,7,95,"TestSlide",7500,"D7_Bottomlit_Frontal",3626,2,1
1,105,"CMFT_Cond2",2011-06-29 17:47:14,8,99.5,"Fix",1500,"Z_5_Front_Half",2614,4,1
1,105,"CMFT_Cond2",2011-06-29 17:47:14,8,101,"TestSlide",1500,"Z_5_Front_Half",2614,4,1
1,105,"CMFT_Cond2",2011-06-29 17:47:14,9,105.5,"Fix",7500,"M_6_23_L_Pro",3159,3,1
1,105,"CMFT_Cond2",2011-06-29 17:47:14,9,113,"TestSlide",7500,"M_6_23_L_Pro",3159,3,1
1,105,"CMFT_Cond2",2011-06-29 17:47:14,10,117.5,"Fix",4500,"J_7_Bottom_Lit",1567,4,0
1,105,"CMFT_Cond2",2011-06-29 17:47:14,10,122,"TestSlide",4500,"J_7_Bottom_Lit",1567,4,0
1,105,"CMFT_Cond2",2011-06-29 17:47:14,11,126.5,"Fix",7500,"N_4_23_R_Pro",2675,3,0
1,105,"CMFT_Cond2",2011-06-29 17:47:14,11,134,"TestSlide",7500,"N_4_23_R_Pro",2675,3,0
1,105,"CMFT_Cond2",2011-06-29 17:47:14,12,138.5,"Fix",6000,"M_8_13_R_Pro_dark",NA,4,0
1,105,"CMFT_Cond2",2011-06-29 17:47:14,12,144.5,"TestSlide",6000,"M_8_13_R_Pro_dark",NA,4,0
1,105,"CMFT_Cond2",2011-06-29 17:47:14,13,149,"Fix",1500,"J_5_Front_Halflit",2214,3,1
1,105,"CMFT_Cond2",2011-06-29 17:47:14,13,150.5,"TestSlide",1500,"J_5_Front_Halflit",2214,3,1
1,105,"CMFT_Cond2",2011-06-29 17:47:14,14,155,"Fix",4500,"N_7_Front_Bot",2434,2,0
1,105,"CMFT_Cond2",2011-06-29 17:47:14,14,159.5,"TestSlide",4500,"N_7_Front_Bot",2434,2,0
1,105,"CMFT_Cond2",2011-06-29 17:47:14,15,164,"Fix",7500,"Z_4_23_Pro_R",3378,3,1
1,105,"CMFT_Cond2",2011-06-29 17:47:14,15,171.5,"TestSlide",7500,"Z_4_23_Pro_R",3378,3,1
1,105,"CMFT_Cond2",2011-06-29 17:47:14,16,176,"Fix",4500,"D8_13_Profile_R",2331,3,0
1,105,"CMFT_Cond2",2011-06-29 17:47:14,16,180.5,"TestSlide",4500,"D8_13_Profile_R",2331,3,0
1,105,"CMFT_Cond2",2011-06-29 17:47:14,17,185,"Fix",1500,"M_7_Front_Bot",2385,3,1
1,105,"CMFT_Cond2",2011-06-29 17:47:14,17,186.5,"TestSlide",1500,"M_7_Front_Bot",2385,3,1
1,105,"CMFT_Cond2",2011-06-29 17:47:14,18,191,"Fix",7500,"B4_23_pro_ri",2734,3,0
1,105,"CMFT_Cond2",2011-06-29 17:47:14,18,198.5,"TestSlide",7500,"B4_23_pro_ri",2734,3,0
1,105,"CMFT_Cond2",2011-06-29 17:47:14,19,203,"Fix",6000,"D6_23_Profile_L",2240,2,0
1,105,"CMFT_Cond2",2011-06-29 17:47:14,19,209,"TestSlide",6000,"D6_23_Profile_L",2240,2,0
1,105,"CMFT_Cond2",2011-06-29 17:47:14,20,213.5,"Fix",4500,"N_5_Front_Half",3067,4,1
1,105,"CMFT_Cond2",2011-06-29 17:47:14,20,218,"TestSlide",4500,"N_5_Front_Half",3067,4,1
1,105,"CMFT_Cond2",2011-06-29 17:47:14,21,222.5,"Fix",7500,"B6_23_pro_L",2201,2,0
1,105,"CMFT_Cond2",2011-06-29 17:47:14,21,230,"TestSlide",7500,"B6_23_pro_L",2201,2,0
1,105,"CMFT_Cond2",2011-06-29 17:47:14,22,234.5,"Fix",7500,"Z_8_13_Pro_R_dark",NA,3,0
1,105,"CMFT_Cond2",2011-06-29 17:47:14,22,242,"TestSlide",7500,"Z_8_13_Pro_R_dark",NA,3,0
1,105,"CMFT_Cond2",2011-06-29 17:47:14,23,246.5,"Fix",3000,"J_4_23_R_Pro",2245,3,0
1,105,"CMFT_Cond2",2011-06-29 17:47:14,23,249.5,"TestSlide",3000,"J_4_23_R_Pro",2245,3,0
1,105,"CMFT_Cond2",2011-06-29 17:47:14,24,254,"Fix",7500,"B8_13_pro_R_HS",3056,2,0
1,105,"CMFT_Cond2",2011-06-29 17:47:14,24,261.5,"TestSlide",7500,"B8_13_pro_R_HS",3056,2,0
1,105,"CMFT_Cond2",2011-06-29 17:47:14,25,266,"Fix",1500,"M_4_23_R_Pro",2328,4,1
1,105,"CMFT_Cond2",2011-06-29 17:47:14,25,267.5,"TestSlide",1500,"M_4_23_R_Pro",2328,4,1
1,105,"CMFT_Cond2",2011-06-29 17:47:14,26,272,"Fix",7500,"J_8_13_r_pro_dark",3226,2,0
1,105,"CMFT_Cond2",2011-06-29 17:47:14,26,279.5,"TestSlide",7500,"J_8_13_r_pro_dark",3226,2,0
1,105,"CMFT_Cond2",2011-06-29 17:47:14,27,284,"Fix",7500,"Z_7_Front_Bot",3167,3,0
1,105,"CMFT_Cond2",2011-06-29 17:47:14,27,291.5,"TestSlide",7500,"Z_7_Front_Bot",3167,3,0
1,105,"CMFT_Cond2",2011-06-29 17:47:14,28,296,"Fix",7500,"D4_23_profile_R",2827,2,0
1,105,"CMFT_Cond2",2011-06-29 17:47:14,28,303.5,"TestSlide",7500,"D4_23_profile_R",2827,2,0
1,105,"CMFT_Cond2",2011-06-29 17:47:14,29,308,"Fix",4500,"N_6_23_L_Pro",2143,2,0
1,105,"CMFT_Cond2",2011-06-29 17:47:14,29,312.5,"TestSlide",4500,"N_6_23_L_Pro",2143,2,0
1,105,"CMFT_Cond2",2011-06-29 17:47:14,30,317,"Fix",3000,"B5_halflit_frontal",2494,4,1
1,105,"CMFT_Cond2",2011-06-29 17:47:14,30,320,"TestSlide",3000,"B5_halflit_frontal",2494,4,1
1,109,"AUS_CMFT_Cond2",2011-04-18 17:45:25,1,29,"Fix",1500,"NovelHLFA040_T1",4167,2,0
1,109,"AUS_CMFT_Cond2",2011-04-18 17:45:25,1,30.5,"TestSlide",1500,"NovelHLFA040_T1",4167,2,0
1,109,"AUS_CMFT_Cond2",2011-04-18 17:45:25,2,35,"Fix",7500,"Novel30RHSA049_T3",2471,4,0
1,109,"AUS_CMFT_Cond2",2011-04-18 17:45:25,2,42.5,"TestSlide",7500,"Novel30RHSA049_T3",2471,4,0
1,109,"AUS_CMFT_Cond2",2011-04-18 17:45:25,3,47,"Fix",1500,"Novel60LA076_T1",4078,2,0
1,109,"AUS_CMFT_Cond2",2011-04-18 17:45:25,3,48.5,"TestSlide",1500,"Novel60LA076_T1",4078,2,0
1,109,"AUS_CMFT_Cond2",2011-04-18 17:45:25,4,53,"Fix",1500,"NovelHLFA011_T3",3742,4,0
1,109,"AUS_CMFT_Cond2",2011-04-18 17:45:25,4,54.5,"TestSlide",1500,"NovelHLFA011_T3",3742,4,0
1,109,"AUS_CMFT_Cond2",2011-04-18 17:45:25,5,59,"Fix",7500,"NovelFBLA004_T3",1533,4,1
1,109,"AUS_CMFT_Cond2",2011-04-18 17:45:25,5,66.5,"TestSlide",7500,"NovelFBLA004_T3",1533,4,1
1,109,"AUS_CMFT_Cond2",2011-04-18 17:45:25,6,71,"Fix",3000,"Novel60LA022_T2",2171,3,0
1,109,"AUS_CMFT_Cond2",2011-04-18 17:45:25,6,74,"TestSlide",3000,"Novel60LA022_T2",2171,3,0
1,109,"AUS_CMFT_Cond2",2011-04-18 17:45:25,7,78.5,"Fix",7500,"NovelFBLA011_T1",2274,2,1
1,109,"AUS_CMFT_Cond2",2011-04-18 17:45:25,7,86,"TestSlide",7500,"NovelFBLA011_T1",2274,2,1
1,109,"AUS_CMFT_Cond2",2011-04-18 17:45:25,8,90.5,"Fix",7500,"NovelHLFA076_T3",3278,4,1
1,109,"AUS_CMFT_Cond2",2011-04-18 17:45:25,8,98,"TestSlide",7500,"NovelHLFA076_T3",3278,4,1
1,109,"AUS_CMFT_Cond2",2011-04-18 17:45:25,9,102.5,"Fix",1500,"Novel60LA040_T2",2780,3,0
1,109,"AUS_CMFT_Cond2",2011-04-18 17:45:25,9,104,"TestSlide",1500,"Novel60LA040_T2",2780,3,0
1,109,"AUS_CMFT_Cond2",2011-04-18 17:45:25,10,108.5,"Fix",7500,"NovelFBLA022_T3",2980,4,0
1,109,"AUS_CMFT_Cond2",2011-04-18 17:45:25,10,116,"TestSlide",7500,"NovelFBLA022_T3",2980,4,0
1,109,"AUS_CMFT_Cond2",2011-04-18 17:45:25,11,120.5,"Fix",3000,"Novel60RA049_T2",2729,3,1
1,109,"AUS_CMFT_Cond2",2011-04-18 17:45:25,11,123.5,"TestSlide",3000,"Novel60RA049_T2",2729,3,1
1,109,"AUS_CMFT_Cond2",2011-04-18 17:45:25,12,128,"Fix",7500,"Novel30RHSA040_T3",3742,4,1
1,109,"AUS_CMFT_Cond2",2011-04-18 17:45:25,12,135.5,"TestSlide",7500,"Novel30RHSA040_T3",3742,4,1
1,109,"AUS_CMFT_Cond2",2011-04-18 17:45:25,13,140,"Fix",7500,"NovelHLFA022_T3",1629,4,0
1,109,"AUS_CMFT_Cond2",2011-04-18 17:45:25,13,147.5,"TestSlide",7500,"NovelHLFA022_T3",1629,4,0
1,109,"AUS_CMFT_Cond2",2011-04-18 17:45:25,14,152,"Fix",4500,"NovelFBLA049_T2",3023,3,0
1,109,"AUS_CMFT_Cond2",2011-04-18 17:45:25,14,156.5,"TestSlide",4500,"NovelFBLA049_T2",3023,3,0
1,109,"AUS_CMFT_Cond2",2011-04-18 17:45:25,15,161,"Fix",4500,"Novel60RA076_T2",4139,3,0
1,109,"AUS_CMFT_Cond2",2011-04-18 17:45:25,15,165.5,"TestSlide",4500,"Novel60RA076_T2",4139,3,0
1,109,"AUS_CMFT_Cond2",2011-04-18 17:45:25,16,170,"Fix",7500,"Novel30RHSA011_T2",2221,3,1
1,109,"AUS_CMFT_Cond2",2011-04-18 17:45:25,16,177.5,"TestSlide",7500,"Novel30RHSA011_T2",2221,3,1
1,109,"AUS_CMFT_Cond2",2011-04-18 17:45:25,17,182,"Fix",7500,"NovelFBLA040_T2",3012,3,0
1,109,"AUS_CMFT_Cond2",2011-04-18 17:45:25,17,189.5,"TestSlide",7500,"NovelFBLA040_T2",3012,3,0
1,109,"AUS_CMFT_Cond2",2011-04-18 17:45:25,18,194,"Fix",7500,"Novel60RA004_T2",2424,3,0
1,109,"AUS_CMFT_Cond2",2011-04-18 17:45:25,18,201.5,"TestSlide",7500,"Novel60RA004_T2",2424,3,0
1,109,"AUS_CMFT_Cond2",2011-04-18 17:45:25,19,206,"Fix",3000,"Novel60LA011_T3",2767,4,1
1,109,"AUS_CMFT_Cond2",2011-04-18 17:45:25,19,209,"TestSlide",3000,"Novel60LA011_T3",2767,4,1
1,109,"AUS_CMFT_Cond2",2011-04-18 17:45:25,20,213.5,"Fix",7500,"NovelHLFA049_T3",2195,4,1
1,109,"AUS_CMFT_Cond2",2011-04-18 17:45:25,20,221,"TestSlide",7500,"NovelHLFA049_T3",2195,4,1
1,109,"AUS_CMFT_Cond2",2011-04-18 17:45:25,21,225.5,"Fix",7500,"Novel60LA004_T1",2982,2,1
1,109,"AUS_CMFT_Cond2",2011-04-18 17:45:25,21,233,"TestSlide",7500,"Novel60LA004_T1",2982,2,1
1,109,"AUS_CMFT_Cond2",2011-04-18 17:45:25,22,237.5,"Fix",7500,"Novel30RHSA076_T2",2500,3,1
1,109,"AUS_CMFT_Cond2",2011-04-18 17:45:25,22,245,"TestSlide",7500,"Novel30RHSA076_T2",2500,3,1
1,109,"AUS_CMFT_Cond2",2011-04-18 17:45:25,23,249.5,"Fix",4500,"Novel60RA022_T2",2015,3,0
1,109,"AUS_CMFT_Cond2",2011-04-18 17:45:25,23,254,"TestSlide",4500,"Novel60RA022_T2",2015,3,0
1,109,"AUS_CMFT_Cond2",2011-04-18 17:45:25,24,258.5,"Fix",7500,"Novel30RHSA004_T3",2400,4,1
1,109,"AUS_CMFT_Cond2",2011-04-18 17:45:25,24,266,"TestSlide",7500,"Novel30RHSA004_T3",2400,4,1
1,109,"AUS_CMFT_Cond2",2011-04-18 17:45:25,25,270.5,"Fix",1500,"Novel60RA040_T3",3100,4,0
1,109,"AUS_CMFT_Cond2",2011-04-18 17:45:25,25,272,"TestSlide",1500,"Novel60RA040_T3",3100,4,0
1,109,"AUS_CMFT_Cond2",2011-04-18 17:45:25,26,276.5,"Fix",7500,"Novel30RHSA022_T1",2339,2,1
1,109,"AUS_CMFT_Cond2",2011-04-18 17:45:25,26,284,"TestSlide",7500,"Novel30RHSA022_T1",2339,2,1
1,109,"AUS_CMFT_Cond2",2011-04-18 17:45:25,27,288.5,"Fix",7500,"NovelFBLA076_T2",1880,3,1
1,109,"AUS_CMFT_Cond2",2011-04-18 17:45:25,27,296,"TestSlide",7500,"NovelFBLA076_T2",1880,3,1
1,109,"AUS_CMFT_Cond2",2011-04-18 17:45:25,28,300.5,"Fix",1500,"Novel60RA011_T1",2483,2,0
1,109,"AUS_CMFT_Cond2",2011-04-18 17:45:25,28,302,"TestSlide",1500,"Novel60RA011_T1",2483,2,0
1,109,"AUS_CMFT_Cond2",2011-04-18 17:45:25,29,306.5,"Fix",3000,"Novel60LA049_T1",2432,2,0
1,109,"AUS_CMFT_Cond2",2011-04-18 17:45:25,29,309.5,"TestSlide",3000,"Novel60LA049_T1",2432,2,0
1,109,"AUS_CMFT_Cond2",2011-04-18 17:45:25,30,314,"Fix",4500,"NovelHLFA004_T3",2401,4,1
1,109,"AUS_CMFT_Cond2",2011-04-18 17:45:25,30,318.5,"TestSlide",4500,"NovelHLFA004_T3",2401,4,1
1,109,"Cars_Cond2",2011-04-18 17:21:49,1,29,"Fix",3000,"5_CI_Side1_Cond2_2_resize",2420,3,1
1,109,"Cars_Cond2",2011-04-18 17:21:49,1,32,"TestSlide",3000,"5_CI_Side1_Cond2_2_resize",2420,3,1
1,109,"Cars_Cond2",2011-04-18 17:21:49,2,36.5,"Fix",3000,"1_ARL_Back_Cond2_3",3834,4,0
1,109,"Cars_Cond2",2011-04-18 17:21:49,2,39.5,"TestSlide",3000,"1_ARL_Back_Cond2_3",3834,4,0
1,109,"Cars_Cond2",2011-04-18 17:21:49,3,44,"Fix",1500,"6_TC_Side1_Cond2_2",3221,3,0
1,109,"Cars_Cond2",2011-04-18 17:21:49,3,45.5,"TestSlide",1500,"6_TC_Side1_Cond2_2",3221,3,0
1,109,"Cars_Cond2",2011-04-18 17:21:49,4,50,"Fix",6000,"2_HC_Front1_Cond2_2",2968,3,0
1,109,"Cars_Cond2",2011-04-18 17:21:49,4,56,"TestSlide",6000,"2_HC_Front1_Cond2_2",2968,3,0
1,109,"Cars_Cond2",2011-04-18 17:21:49,5,60.5,"Fix",4500,"5_CI_Front1_Cond2_1",3614,2,0
1,109,"Cars_Cond2",2011-04-18 17:21:49,5,65,"TestSlide",4500,"5_CI_Front1_Cond2_1",3614,2,0
1,109,"Cars_Cond2",2011-04-18 17:21:49,6,69.5,"Fix",7500,"3_FT_Back_Cond2_3",1694,4,0
1,109,"Cars_Cond2",2011-04-18 17:21:49,6,77,"TestSlide",7500,"3_FT_Back_Cond2_3",1694,4,0
1,109,"Cars_Cond2",2011-04-18 17:21:49,7,81.5,"Fix",3000,"4_KS_Side1_Cond2_3",2236,4,0
1,109,"Cars_Cond2",2011-04-18 17:21:49,7,84.5,"TestSlide",3000,"4_KS_Side1_Cond2_3",2236,4,0
1,109,"Cars_Cond2",2011-04-18 17:21:49,8,89,"Fix",7500,"6_TC_Side2_Cond2_1",2540,2,0
1,109,"Cars_Cond2",2011-04-18 17:21:49,8,96.5,"TestSlide",7500,"6_TC_Side2_Cond2_1",2540,2,0
1,109,"Cars_Cond2",2011-04-18 17:21:49,9,101,"Fix",7500,"1_ARL_Front1_Cond2_3",1843,4,0
1,109,"Cars_Cond2",2011-04-18 17:21:49,9,108.5,"TestSlide",7500,"1_ARL_Front1_Cond2_3",1843,4,0
1,109,"Cars_Cond2",2011-04-18 17:21:49,10,113,"Fix",6000,"2_HC_Front2_Cond2_2",2914,3,1
1,109,"Cars_Cond2",2011-04-18 17:21:49,10,119,"TestSlide",6000,"2_HC_Front2_Cond2_2",2914,3,1
1,109,"Cars_Cond2",2011-04-18 17:21:49,11,123.5,"Fix",1500,"4_KS_Back_Cond2_1",2843,2,1
1,109,"Cars_Cond2",2011-04-18 17:21:49,11,125,"TestSlide",1500,"4_KS_Back_Cond2_1",2843,2,1
1,109,"Cars_Cond2",2011-04-18 17:21:49,12,129.5,"Fix",6000,"3_FT_Side1_Cond2_2",2498,3,1
1,109,"Cars_Cond2",2011-04-18 17:21:49,12,135.5,"TestSlide",6000,"3_FT_Side1_Cond2_2",2498,3,1
1,109,"Cars_Cond2",2011-04-18 17:21:49,13,140,"Fix",3000,"5_CI_Back_Cond2_2",3059,3,1
1,109,"Cars_Cond2",2011-04-18 17:21:49,13,143,"TestSlide",3000,"5_CI_Back_Cond2_2",3059,3,1
1,109,"Cars_Cond2",2011-04-18 17:21:49,14,147.5,"Fix",7500,"1_ARL_Side1_Cond2_2",2733,3,1
1,109,"Cars_Cond2",2011-04-18 17:21:49,14,155,"TestSlide",7500,"1_ARL_Side1_Cond2_2",2733,3,1
1,109,"Cars_Cond2",2011-04-18 17:21:49,15,159.5,"Fix",7500,"6_TC_Front1_Cond2_3",2372,4,1
1,109,"Cars_Cond2",2011-04-18 17:21:49,15,167,"TestSlide",7500,"6_TC_Front1_Cond2_3",2372,4,1
1,109,"Cars_Cond2",2011-04-18 17:21:49,16,171.5,"Fix",3000,"2_HC_Side1_Cond2_1",2546,2,1
1,109,"Cars_Cond2",2011-04-18 17:21:49,16,174.5,"TestSlide",3000,"2_HC_Side1_Cond2_1",2546,2,1
1,109,"Cars_Cond2",2011-04-18 17:21:49,17,179,"Fix",3000,"4_KS_Front1_Cond2_3",2851,4,1
1,109,"Cars_Cond2",2011-04-18 17:21:49,17,182,"TestSlide",3000,"4_KS_Front1_Cond2_3",2851,4,1
1,109,"Cars_Cond2",2011-04-18 17:21:49,18,186.5,"Fix",3000,"5_CI_Front2_Cond2_1",2810,2,0
1,109,"Cars_Cond2",2011-04-18 17:21:49,18,189.5,"TestSlide",3000,"5_CI_Front2_Cond2_1",2810,2,0
1,109,"Cars_Cond2",2011-04-18 17:21:49,19,194,"Fix",7500,"3_FT_Front1_Cond2_1",2160,2,0
1,109,"Cars_Cond2",2011-04-18 17:21:49,19,201.5,"TestSlide",7500,"3_FT_Front1_Cond2_1",2160,2,0
1,109,"Cars_Cond2",2011-04-18 17:21:49,20,206,"Fix",4500,"1_ARL_Side2_Cond2_2",NA,3,0
1,109,"Cars_Cond2",2011-04-18 17:21:49,20,210.5,"TestSlide",4500,"1_ARL_Side2_Cond2_2",NA,3,0
1,109,"Cars_Cond2",2011-04-18 17:21:49,21,215,"Fix",1500,"4_KS_Side2_Cond2_1",1336,2,0
1,109,"Cars_Cond2",2011-04-18 17:21:49,21,216.5,"TestSlide",1500,"4_KS_Side2_Cond2_1",1336,2,0
1,109,"Cars_Cond2",2011-04-18 17:21:49,22,221,"Fix",3000,"6_TC_Front2_Cond2_3",2354,4,0
1,109,"Cars_Cond2",2011-04-18 17:21:49,22,224,"TestSlide",3000,"6_TC_Front2_Cond2_3",2354,4,0
1,109,"Cars_Cond2",2011-04-18 17:21:49,23,228.5,"Fix",7500,"2_HC_Side2_Cond2_3",1872,4,1
1,109,"Cars_Cond2",2011-04-18 17:21:49,23,236,"TestSlide",7500,"2_HC_Side2_Cond2_3",1872,4,1
1,109,"Cars_Cond2",2011-04-18 17:21:49,24,240.5,"Fix",7500,"3_FT_Front2_Cond2_1",3449,2,0
1,109,"Cars_Cond2",2011-04-18 17:21:49,24,248,"TestSlide",7500,"3_FT_Front2_Cond2_1",3449,2,0
1,109,"Cars_Cond2",2011-04-18 17:21:49,25,252.5,"Fix",6000,"6_TC_Back_Cond2_3",1119,4,1
1,109,"Cars_Cond2",2011-04-18 17:21:49,25,258.5,"TestSlide",6000,"6_TC_Back_Cond2_3",1119,4,1
1,109,"Cars_Cond2",2011-04-18 17:21:49,26,263,"Fix",4500,"1_ARL_Front2_Cond2_2",3568,3,0
1,109,"Cars_Cond2",2011-04-18 17:21:49,26,267.5,"TestSlide",4500,"1_ARL_Front2_Cond2_2",3568,3,0
1,109,"Cars_Cond2",2011-04-18 17:21:49,27,272,"Fix",7500,"5_CI_Side2_Cond2_2",2190,3,1
1,109,"Cars_Cond2",2011-04-18 17:21:49,27,279.5,"TestSlide",7500,"5_CI_Side2_Cond2_2",2190,3,1
1,109,"Cars_Cond2",2011-04-18 17:21:49,28,284,"Fix",7500,"4_KS_Front2_Cond2_2",1425,3,0
1,109,"Cars_Cond2",2011-04-18 17:21:49,28,291.5,"TestSlide",7500,"4_KS_Front2_Cond2_2",1425,3,0
1,109,"Cars_Cond2",2011-04-18 17:21:49,29,296,"Fix",7500,"3_FT_Side2_Cond2_3",2542,4,0
1,109,"Cars_Cond2",2011-04-18 17:21:49,29,303.5,"TestSlide",7500,"3_FT_Side2_Cond2_3",2542,4,0
1,109,"Cars_Cond2",2011-04-18 17:21:49,30,308,"Fix",7500,"2_HC_Back_Cond2_2",1675,3,0
1,109,"Cars_Cond2",2011-04-18 17:21:49,30,315.5,"TestSlide",7500,"2_HC_Back_Cond2_2",1675,3,0
1,109,"CMFT_Cond2",2011-04-18 17:33:41,1,29,"Fix",1500,"M_5_Front_Halflit",2188,2,1
1,109,"CMFT_Cond2",2011-04-18 17:33:41,1,30.5,"TestSlide",1500,"M_5_Front_Halflit",2188,2,1
1,109,"CMFT_Cond2",2011-04-18 17:33:41,2,35,"Fix",6000,"N_8_13_R_Pro_dark",1840,3,1
1,109,"CMFT_Cond2",2011-04-18 17:33:41,2,41,"TestSlide",6000,"N_8_13_R_Pro_dark",1840,3,1
1,109,"CMFT_Cond2",2011-04-18 17:33:41,3,45.5,"Fix",1500,"Z_6_23_Pro_L",3941,2,1
1,109,"CMFT_Cond2",2011-04-18 17:33:41,3,47,"TestSlide",1500,"Z_6_23_Pro_L",3941,2,1
1,109,"CMFT_Cond2",2011-04-18 17:33:41,4,51.5,"Fix",7500,"D5_Halflit_Frontal",2611,4,1
1,109,"CMFT_Cond2",2011-04-18 17:33:41,4,59,"TestSlide",7500,"D5_Halflit_Frontal",2611,4,1
1,109,"CMFT_Cond2",2011-04-18 17:33:41,5,63.5,"Fix",7500,"B7_Bottomlit_Frontal",3117,4,1
1,109,"CMFT_Cond2",2011-04-18 17:33:41,5,71,"TestSlide",7500,"B7_Bottomlit_Frontal",3117,4,1
1,109,"CMFT_Cond2",2011-04-18 17:33:41,6,75.5,"Fix",7500,"J_6_23_L_Pro",1634,3,1
1,109,"CMFT_Cond2",2011-04-18 17:33:41,6,83,"TestSlide",7500,"J_6_23_L_Pro",1634,3,1
1,109,"CMFT_Cond2",2011-04-18 17:33:41,7,87.5,"Fix",7500,"D7_Bottomlit_Frontal",3820,2,1
1,109,"CMFT_Cond2",2011-04-18 17:33:41,7,95,"TestSlide",7500,"D7_Bottomlit_Frontal",3820,2,1
1,109,"CMFT_Cond2",2011-04-18 17:33:41,8,99.5,"Fix",1500,"Z_5_Front_Half",2827,4,0
1,109,"CMFT_Cond2",2011-04-18 17:33:41,8,101,"TestSlide",1500,"Z_5_Front_Half",2827,4,0
1,109,"CMFT_Cond2",2011-04-18 17:33:41,9,105.5,"Fix",7500,"M_6_23_L_Pro",2386,3,1
1,109,"CMFT_Cond2",2011-04-18 17:33:41,9,113,"TestSlide",7500,"M_6_23_L_Pro",2386,3,1
1,109,"CMFT_Cond2",2011-04-18 17:33:41,10,117.5,"Fix",4500,"J_7_Bottom_Lit",2641,4,1
1,109,"CMFT_Cond2",2011-04-18 17:33:41,10,122,"TestSlide",4500,"J_7_Bottom_Lit",2641,4,1
1,109,"CMFT_Cond2",2011-04-18 17:33:41,11,126.5,"Fix",7500,"N_4_23_R_Pro",1701,3,1
1,109,"CMFT_Cond2",2011-04-18 17:33:41,11,134,"TestSlide",7500,"N_4_23_R_Pro",1701,3,1
1,109,"CMFT_Cond2",2011-04-18 17:33:41,12,138.5,"Fix",6000,"M_8_13_R_Pro_dark",2624,4,1
1,109,"CMFT_Cond2",2011-04-18 17:33:41,12,144.5,"TestSlide",6000,"M_8_13_R_Pro_dark",2624,4,1
1,109,"CMFT_Cond2",2011-04-18 17:33:41,13,149,"Fix",1500,"J_5_Front_Halflit",1639,3,1
1,109,"CMFT_Cond2",2011-04-18 17:33:41,13,150.5,"TestSlide",1500,"J_5_Front_Halflit",1639,3,1
1,109,"CMFT_Cond2",2011-04-18 17:33:41,14,155,"Fix",4500,"N_7_Front_Bot",2008,2,1
1,109,"CMFT_Cond2",2011-04-18 17:33:41,14,159.5,"TestSlide",4500,"N_7_Front_Bot",2008,2,1
1,109,"CMFT_Cond2",2011-04-18 17:33:41,15,164,"Fix",7500,"Z_4_23_Pro_R",NA,3,0
1,109,"CMFT_Cond2",2011-04-18 17:33:41,15,171.5,"TestSlide",7500,"Z_4_23_Pro_R",NA,3,0
1,109,"CMFT_Cond2",2011-04-18 17:33:41,16,176,"Fix",4500,"D8_13_Profile_R",NA,3,0
1,109,"CMFT_Cond2",2011-04-18 17:33:41,16,180.5,"TestSlide",4500,"D8_13_Profile_R",NA,3,0
1,109,"CMFT_Cond2",2011-04-18 17:33:41,17,185,"Fix",1500,"M_7_Front_Bot",1344,3,1
1,109,"CMFT_Cond2",2011-04-18 17:33:41,17,186.5,"TestSlide",1500,"M_7_Front_Bot",1344,3,1
1,109,"CMFT_Cond2",2011-04-18 17:33:41,18,191,"Fix",7500,"B4_23_pro_ri",2835,3,1
1,109,"CMFT_Cond2",2011-04-18 17:33:41,18,198.5,"TestSlide",7500,"B4_23_pro_ri",2835,3,1
1,109,"CMFT_Cond2",2011-04-18 17:33:41,19,203,"Fix",6000,"D6_23_Profile_L",3157,2,0
1,109,"CMFT_Cond2",2011-04-18 17:33:41,19,209,"TestSlide",6000,"D6_23_Profile_L",3157,2,0
1,109,"CMFT_Cond2",2011-04-18 17:33:41,20,213.5,"Fix",4500,"N_5_Front_Half",1554,4,1
1,109,"CMFT_Cond2",2011-04-18 17:33:41,20,218,"TestSlide",4500,"N_5_Front_Half",1554,4,1
1,109,"CMFT_Cond2",2011-04-18 17:33:41,21,222.5,"Fix",7500,"B6_23_pro_L",1969,2,1
1,109,"CMFT_Cond2",2011-04-18 17:33:41,21,230,"TestSlide",7500,"B6_23_pro_L",1969,2,1
1,109,"CMFT_Cond2",2011-04-18 17:33:41,22,234.5,"Fix",7500,"Z_8_13_Pro_R_dark",3530,3,1
1,109,"CMFT_Cond2",2011-04-18 17:33:41,22,242,"TestSlide",7500,"Z_8_13_Pro_R_dark",3530,3,1
1,109,"CMFT_Cond2",2011-04-18 17:33:41,23,246.5,"Fix",3000,"J_4_23_R_Pro",1023,3,1
1,109,"CMFT_Cond2",2011-04-18 17:33:41,23,249.5,"TestSlide",3000,"J_4_23_R_Pro",1023,3,1
1,109,"CMFT_Cond2",2011-04-18 17:33:41,24,254,"Fix",7500,"B8_13_pro_R_HS",2000,2,1
1,109,"CMFT_Cond2",2011-04-18 17:33:41,24,261.5,"TestSlide",7500,"B8_13_pro_R_HS",2000,2,1
1,109,"CMFT_Cond2",2011-04-18 17:33:41,25,266,"Fix",1500,"M_4_23_R_Pro",1275,4,1
1,109,"CMFT_Cond2",2011-04-18 17:33:41,25,267.5,"TestSlide",1500,"M_4_23_R_Pro",1275,4,1
1,109,"CMFT_Cond2",2011-04-18 17:33:41,26,272,"Fix",7500,"J_8_13_r_pro_dark",1651,2,1
1,109,"CMFT_Cond2",2011-04-18 17:33:41,26,279.5,"TestSlide",7500,"J_8_13_r_pro_dark",1651,2,1
1,109,"CMFT_Cond2",2011-04-18 17:33:41,27,284,"Fix",7500,"Z_7_Front_Bot",2732,3,0
1,109,"CMFT_Cond2",2011-04-18 17:33:41,27,291.5,"TestSlide",7500,"Z_7_Front_Bot",2732,3,0
1,109,"CMFT_Cond2",2011-04-18 17:33:41,28,296,"Fix",7500,"D4_23_profile_R",2752,2,0
1,109,"CMFT_Cond2",2011-04-18 17:33:41,28,303.5,"TestSlide",7500,"D4_23_profile_R",2752,2,0
1,109,"CMFT_Cond2",2011-04-18 17:33:41,29,308,"Fix",4500,"N_6_23_L_Pro",1711,2,1
1,109,"CMFT_Cond2",2011-04-18 17:33:41,29,312.5,"TestSlide",4500,"N_6_23_L_Pro",1711,2,1
1,109,"CMFT_Cond2",2011-04-18 17:33:41,30,317,"Fix",3000,"B5_halflit_frontal",1788,4,1
1,109,"CMFT_Cond2",2011-04-18 17:33:41,30,320,"TestSlide",3000,"B5_halflit_frontal",1788,4,1
2,109,"AUS_CMFT_Cond2",2013-02-09 12:27:08,1,29,"Fix",1500,"NovelHLFA040_T1",1392,2,1
2,109,"AUS_CMFT_Cond2",2013-02-09 12:27:08,1,30.5,"TestSlide",1500,"NovelHLFA040_T1",1392,2,1
2,109,"AUS_CMFT_Cond2",2013-02-09 12:27:08,2,35,"Fix",7500,"Novel30RHSA049_T3",3542,4,1
2,109,"AUS_CMFT_Cond2",2013-02-09 12:27:08,2,42.5,"TestSlide",7500,"Novel30RHSA049_T3",3542,4,1
2,109,"AUS_CMFT_Cond2",2013-02-09 12:27:08,3,47,"Fix",1500,"Novel60LA076_T1",2774,2,1
2,109,"AUS_CMFT_Cond2",2013-02-09 12:27:08,3,48.5,"TestSlide",1500,"Novel60LA076_T1",2774,2,1
2,109,"AUS_CMFT_Cond2",2013-02-09 12:27:08,4,53,"Fix",1500,"NovelHLFA011_T3",NA,4,0
2,109,"AUS_CMFT_Cond2",2013-02-09 12:27:08,4,54.5,"TestSlide",1500,"NovelHLFA011_T3",NA,4,0
2,109,"AUS_CMFT_Cond2",2013-02-09 12:27:08,5,59,"Fix",7500,"NovelFBLA004_T3",1937,4,1
2,109,"AUS_CMFT_Cond2",2013-02-09 12:27:08,5,66.5,"TestSlide",7500,"NovelFBLA004_T3",1937,4,1
2,109,"AUS_CMFT_Cond2",2013-02-09 12:27:08,6,71,"Fix",3000,"Novel60LA022_T2",2701,3,1
2,109,"AUS_CMFT_Cond2",2013-02-09 12:27:08,6,74,"TestSlide",3000,"Novel60LA022_T2",2701,3,1
2,109,"AUS_CMFT_Cond2",2013-02-09 12:27:08,7,78.5,"Fix",7500,"NovelFBLA011_T1",1549,2,1
2,109,"AUS_CMFT_Cond2",2013-02-09 12:27:08,7,86,"TestSlide",7500,"NovelFBLA011_T1",1549,2,1
2,109,"AUS_CMFT_Cond2",2013-02-09 12:27:08,8,90.5,"Fix",7500,"NovelHLFA076_T3",2293,4,1
2,109,"AUS_CMFT_Cond2",2013-02-09 12:27:08,8,98,"TestSlide",7500,"NovelHLFA076_T3",2293,4,1
2,109,"AUS_CMFT_Cond2",2013-02-09 12:27:08,9,102.5,"Fix",1500,"Novel60LA040_T2",1227,3,1
2,109,"AUS_CMFT_Cond2",2013-02-09 12:27:08,9,104,"TestSlide",1500,"Novel60LA040_T2",1227,3,1
2,109,"AUS_CMFT_Cond2",2013-02-09 12:27:08,10,108.5,"Fix",7500,"NovelFBLA022_T3",2512,4,0
2,109,"AUS_CMFT_Cond2",2013-02-09 12:27:08,10,116,"TestSlide",7500,"NovelFBLA022_T3",2512,4,0
2,109,"AUS_CMFT_Cond2",2013-02-09 12:27:08,11,120.5,"Fix",3000,"Novel60RA049_T2",2439,3,0
2,109,"AUS_CMFT_Cond2",2013-02-09 12:27:08,11,123.5,"TestSlide",3000,"Novel60RA049_T2",2439,3,0
2,109,"AUS_CMFT_Cond2",2013-02-09 12:27:08,12,128,"Fix",7500,"Novel30RHSA040_T3",4347,4,0
2,109,"AUS_CMFT_Cond2",2013-02-09 12:27:08,12,135.5,"TestSlide",7500,"Novel30RHSA040_T3",4347,4,0
2,109,"AUS_CMFT_Cond2",2013-02-09 12:27:08,13,140,"Fix",7500,"NovelHLFA022_T3",2117,4,1
2,109,"AUS_CMFT_Cond2",2013-02-09 12:27:08,13,147.5,"TestSlide",7500,"NovelHLFA022_T3",2117,4,1
2,109,"AUS_CMFT_Cond2",2013-02-09 12:27:08,14,152,"Fix",4500,"NovelFBLA049_T2",1785,3,1
2,109,"AUS_CMFT_Cond2",2013-02-09 12:27:08,14,156.5,"TestSlide",4500,"NovelFBLA049_T2",1785,3,1
2,109,"AUS_CMFT_Cond2",2013-02-09 12:27:08,15,161,"Fix",4500,"Novel60RA076_T2",2936,3,1
2,109,"AUS_CMFT_Cond2",2013-02-09 12:27:08,15,165.5,"TestSlide",4500,"Novel60RA076_T2",2936,3,1
